time,seconds_elapsed,z,y,x,t
1766001740230164200,9.645164306640623,0.047036588191986,-0.3429242074489593,-0.544967770576477,5.981906738281249
1766001740248945700,9.663945556640623,-0.0036651887930929,-0.1303432732820511,-0.4611265361309051,6.000687988281249
1766001740267727400,9.682727294921875,-0.0276416316628456,0.1297324001789093,-0.3907243907451629,6.019469726562501
1766001740286508800,9.7015087890625,-0.0520762242376804,0.261984646320343,-0.3850739002227783,6.038251220703125
1766001740305290500,9.72029052734375,-0.0598647482693195,0.3549887835979461,-0.414089947938919,6.057032958984375
1766001740324072000,9.739072021484375,-0.0455094277858734,0.2491564750671386,-0.5142717957496643,6.075814453125001
1766001740342853600,9.757853515625,-0.067805990576744,0.2590830326080322,-0.6515636444091797,6.094595947265625
1766001740361635000,9.776635009765624,-0.0763580948114395,0.0691040754318237,-0.7671698331832886,6.113377441406249
1766001740380416800,9.795416748046875,-0.0571158565580844,-0.1587484776973724,-0.7978657484054565,6.132159179687501
1766001740399198200,9.8141982421875,-0.0664315447211265,-0.3621664643287658,-0.677678108215332,6.150940673828125
1766001740417980000,9.83297998046875,-0.040469791740179,-0.3320813775062561,-0.4203513264656067,6.169722412109375
1766001740436761300,9.85176123046875,-0.0003054323897231,0.0718529671430587,-0.1450040340423584,6.188503662109375
1766001740455543000,9.87054296875,-0.0009162971982732,0.4461603760719299,0.0924696549773216,6.207285400390625
1766001740474324500,9.889324462890626,0.0200058221817016,0.4194350242614746,0.2738964855670929,6.226066894531251
1766001740493106200,9.908106201171876,0.0403170771896839,0.0958294123411178,0.4127155244350433,6.244848632812501
1766001740511887600,9.9268876953125,0.0704021677374839,-0.1039233729243278,0.5214494466781616,6.263630126953125
1766001740530669300,9.94566943359375,0.0529925189912319,-0.0924696549773216,0.5831468105316162,6.2824118652343754
1766001740549450800,9.96445068359375,0.0335975624620914,0.2059377878904342,0.6089558005332947,6.301193115234375
1766001740568232200,9.983232177734376,0.0039706211537122,0.3056614696979522,0.6155226230621338,6.319974609375001
1766001740587014000,10.002013916015626,0.0183259434998035,0.061010118573904,0.5539780259132385,6.338756347656251
1766001740605795300,10.02079541015625,0.0734564885497093,-0.0495564043521881,0.4753291606903076,6.3575378417968755
1766001740624577000,10.039576904296876,0.0259617529809474,-0.0217620581388473,0.4104247689247131,6.376319335937501
1766001740643358500,10.0583583984375,0.0259617529809474,0.0796414986252784,0.3200167715549469,6.395100830078126
1766001740662140200,10.07714013671875,0.0251981727778911,0.0717002525925636,0.2486983239650726,6.413882568359376
1766001740680921600,10.095921630859374,0.0152716198936104,-0.0852919965982437,0.1790597438812255,6.4326640625
1766001740699703300,10.114703369140624,0.0407752245664596,-0.2238055765628814,0.1049923822283744,6.45144580078125
1766001740718485000,10.133485107421874,0.0519235059618949,-0.2574031352996826,0.0371863916516304,6.4702275390625
1766001740737266400,10.152266357421874,0.0238237269222736,-0.174172818660736,-0.0125990863889455,6.4890087890625
1766001740756048000,10.1710478515625,-0.0087048234418034,-0.0943022519350051,-0.051083568483591,6.507790283203126
1766001740774829600,10.18982958984375,-0.0135917412117123,-0.1616500914096832,-0.0849865600466728,6.526572021484376
1766001740793611000,10.208611083984374,-0.0427605360746383,-0.1958585232496261,-0.072921983897686,6.545353515625
1766001740812392700,10.227392822265625,-0.0360410213470459,-0.072921983897686,-0.0211511924862861,6.56413525390625
1766001740831174400,10.24617431640625,-0.0601701810956001,0.0297033004462718,0.0695622265338897,6.582916748046876
1766001740849955800,10.264955810546876,-0.0818558782339096,0.0738382786512374,0.2176969349384308,6.601698242187502
1766001740868737500,10.283737548828125,-0.0558941289782524,0.0868191570043563,0.4347066581249237,6.62047998046875
1766001740887519000,10.30251904296875,-0.0198531057685613,0.1111010313034057,0.7149408459663391,6.639261474609376
1766001740906300700,10.32130078125,0.0302378069609403,0.2115882933139801,1.0889428853988647,6.658043212890626
1766001740925082000,10.34008203125,0.0600174628198146,0.2635118067264557,1.4805071353912354,6.676824462890626
1766001740943863800,10.35886376953125,0.0189368072897195,0.3487274348735809,1.6643774509429932,6.695606201171876
1766001740962645200,10.377645263671877,-0.0517707914113998,0.6674461364746094,1.858327031135559,6.714387695312502
1766001740981427000,10.396427001953125,-0.080481432378292,0.6059014797210693,2.0710606575012207,6.73316943359375
1766001741000208400,10.41520849609375,-0.0664315447211265,0.8149699568748474,2.149556875228882,6.751950927734376
1766001741018990000,10.433989990234377,0.0334448479115963,0.7083740830421448,2.181321859359741,6.770732421875002
1766001741037771500,10.452771484375,0.0697913020849227,0.3009272515773773,1.8813871145248413,6.789513916015626
1766001741056553200,10.47155322265625,0.0450512766838073,0.0387135557830333,1.564653754234314,6.808295654296876
1766001741075334700,10.490334716796877,0.2504545450210571,-0.0350483655929565,1.1665226221084597,6.827077148437502
1766001741094116400,10.509116455078123,0.5380191802978516,-0.227318063378334,0.5866592526435852,6.845858886718749
1766001741112897800,10.527897705078123,0.4272999167442322,-0.2746600806713104,-0.1048396676778793,6.864640136718749
1766001741131679500,10.546679443359375,-0.0054977829568088,-0.3543779253959656,-1.042211651802063,6.883421875000001
1766001741150461000,10.5654609375,-0.0800232887268066,-0.6714167594909668,-2.0903029441833496,6.902203369140625
1766001741169242600,10.58424267578125,-0.0849102064967155,-0.946153163909912,-2.942459344863892,6.920985107421875
1766001741188024000,10.603024169921875,-0.3046688139438629,-1.1269692182540894,-3.829282283782959,6.939766601562501
1766001741206805800,10.6218056640625,-0.2368628233671188,-1.613828420639038,-4.912956237792969,6.958548095703125
1766001741225587200,10.640587158203124,-0.2368628233671188,-2.8813726902008057,-5.2866530418396,6.977329589843749
1766001741244369000,10.659368896484375,0.1679878085851669,-2.441244840621948,-3.64128851890564,6.996111328125001
1766001741263150300,10.678150390625,0.1679878085851669,-0.6601157784461975,-1.197524070739746,7.014892822265625
1766001741281932000,10.69693212890625,0.4068359434604645,-0.3702604174613952,-0.0519998632371425,7.033674560546875
1766001741300713500,10.71571337890625,0.0821613147854805,0.1665370166301727,0.3609447181224823,7.052455810546875
1766001741319495200,10.7344951171875,-0.0087048234418034,0.2396880686283111,0.408592164516449,7.071237548828125
1766001741338276900,10.75327685546875,0.0736092031002044,0.4626537263393402,0.279852420091629,7.090019287109375
1766001741357058300,10.772058349609376,-0.0514653585851192,0.4542543292045593,-0.017791436985135,7.108800781250001
1766001741375839700,10.79083984375,-0.0227547138929367,0.1150716543197631,-0.2691622972488403,7.127582275390625
1766001741394621400,10.809621337890626,0.0733037739992141,-0.1721875071525573,-0.4657080471515655,7.146363769531251
1766001741413403000,10.82840283203125,0.1201876476407051,-0.3572795391082763,-0.5255727767944336,7.165145263671875
1766001741432184600,10.8471845703125,0.1272125840187072,-0.4137845337390899,-0.3937787115573883,7.183927001953125
1766001741450966300,10.86596630859375,0.1353065520524978,-0.2705367505550384,-0.1558468788862228,7.2027087402343755
1766001741469747700,10.884747802734376,0.075441800057888,0.1340084671974182,0.1100320219993591,7.221490234375001
1766001741488529400,10.903529296875,0.0244345907121896,0.4869355857372284,0.4716639816761017,7.2402717285156255
1766001741507310800,10.922310791015626,-0.0577267222106456,0.8302416205406189,0.9635628461837769,7.259053222656251
1766001741526092500,10.941092529296874,-0.236251950263977,1.3885719776153564,1.903530955314636,7.2778349609375
1766001741544874000,10.9598740234375,-0.3460549116134643,2.6463425159454346,5.027187824249268,7.296616455078126
1766001741563655700,10.97865576171875,-0.28451026976108545,2.705443859100342,3.432372808456421,7.315398193359376
1766001741582437000,10.99743701171875,-0.3327685892581939,2.223929643630981,1.974238634109497,7.334179443359376
1766001741601218800,11.01621875,0.3362810611724853,-0.4177551567554474,1.8540509939193728,7.352961181640626
1766001741620000300,11.035000244140624,0.6656898856163025,2.256916284561157,1.4760783910751345,7.37174267578125
1766001741638782000,11.053781982421874,0.4716639816761017,2.0570108890533447,0.7651845216751099,7.3905244140625
1766001741657563400,11.0725634765625,0.607046902179718,-0.7083740830421448,0.0739909932017326,7.409305908203126
1766001741676345000,11.091344970703124,0.323911041021347,-1.2612067461013794,-0.775263786315918,7.42808740234375
1766001741695126500,11.11012646484375,-0.342542439699173,-0.858646810054779,-1.1016182899475098,7.446868896484376
1766001741713908200,11.128908203125,0.1598938554525375,-1.6477314233779907,-1.455919861793518,7.465650634765626
1766001741732689700,11.147689697265625,0.3573558926582336,-1.7046945095062256,-1.6304744482040403,7.48443212890625
1766001741751471400,11.166471435546876,-0.0073303775861859,-1.4867684841156006,-1.5825215578079224,7.503213867187502
1766001741770252800,11.185252685546876,-0.1669187992811203,-1.0148755311965942,-1.4482840299606323,7.521995117187502
1766001741789034500,11.204034423828125,0.036651886999607,-0.2535852491855621,-1.2393683195114136,7.54077685546875
1766001741807816000,11.22281591796875,0.1340848207473755,0.1480583548545837,-0.9876919984817504,7.559558349609376
1766001741826597600,11.24159765625,-0.0210748352110385,0.3235292732715606,-0.7453314065933228,7.578340087890626
1766001741845379000,11.260379150390625,-0.0658206790685653,0.3728565871715545,-0.5978075265884399,7.59712158203125
1766001741864160800,11.279160888671877,-0.1698204129934311,0.9814306497573853,-0.492586076259613,7.615903320312502
1766001741882942200,11.297942138671877,-0.2144135385751724,1.4343868494033811,-0.4102720618247986,7.634684570312502
1766001741901724000,11.316723876953125,-0.1713475733995437,1.2164608240127563,-0.6349175572395325,7.65346630859375
1766001741920505300,11.33550537109375,0.1140789985656738,0.7260891199111938,-0.9299652576446532,7.672247802734376
1766001741939287000,11.354287109375,0.0647516697645187,-0.1633299738168716,-0.8986584544181824,7.691029541015626
1766001741958068500,11.373068359375,-0.1165224537253379,-0.7175370454788208,-0.8032108545303345,7.709810791015626
1766001741976850200,11.39185009765625,0.086284652352333,-0.3710239827632904,-0.7372374534606934,7.728592529296875
1766001741995631600,11.410631591796877,0.0879645273089408,0.2277761995792389,-0.6610320210456848,7.747374023437502
1766001742014413300,11.429413330078123,-0.0525343716144561,0.6711113452911377,-0.5611556768417358,7.766155761718749
1766001742033194800,11.44819482421875,-0.0762053802609443,0.7099012136459351,-0.4534907341003418,7.784937255859375
1766001742051976400,11.4669765625,-0.0675005614757537,0.5382482409477234,-0.3574322462081909,7.803718994140625
1766001742070758000,11.4857578125,-0.0334448479115963,0.2502254843711853,-0.2804632782936096,7.822500244140625
1766001742089539600,11.50453955078125,-0.0119118634611368,-0.0092393299564719,-0.224569171667099,7.841281982421875
1766001742108321000,11.523321044921875,0.0383317656815052,-0.2932914495468139,-0.1611919403076172,7.860063476562501
1766001742127102700,11.542102783203124,0.0592538826167583,-0.4470766484737396,-0.1240819096565246,7.878845214843749
1766001742145884200,11.56088427734375,0.0386371985077858,-0.4643335938453674,-0.1086575761437416,7.897626708984375
1766001742164665900,11.579665771484375,0.0216856990009546,-0.3946950137615204,-0.1249982044100761,7.916408203125001
1766001742183447300,11.598447265625,0.006566796451807,-0.1950949430465698,-0.1570686101913452,7.935189697265625
1766001742202229000,11.61722900390625,-0.0143553223460912,0.0486401095986366,-0.1891390085220337,7.953971435546875
