time,seconds_elapsed,z,y,x,t
1766001741225587200,10.640587158203124,0.1679878085851669,-2.8813726902008057,-5.2866530418396,6.977329589843749
1766001741244369000,10.659368896484375,0.2874118760228157,-2.441244840621948,-3.64128851890564,6.996111328125001
1766001741263150300,10.678150390625,0.1679878085851669,-0.6601157784461975,-1.197524070739746,7.014892822265625
1766001741281932000,10.69693212890625,0.4068359434604645,-0.3702604174613952,-0.0519998632371425,7.033674560546875
1766001741300713500,10.71571337890625,0.0821613147854805,0.1665370166301727,0.3609447181224823,7.052455810546875
1766001741319495200,10.7344951171875,-0.0087048234418034,0.2396880686283111,0.408592164516449,7.071237548828125
1766001741338276900,10.75327685546875,0.0736092031002044,0.4626537263393402,0.279852420091629,7.090019287109375
1766001741357058300,10.772058349609376,-0.0514653585851192,0.4542543292045593,-0.017791436985135,7.108800781250001
1766001741375839700,10.79083984375,-0.0227547138929367,0.1150716543197631,-0.2691622972488403,7.127582275390625
1766001741394621400,10.809621337890626,0.0733037739992141,-0.1721875071525573,-0.4657080471515655,7.146363769531251
1766001741413403000,10.82840283203125,0.1201876476407051,-0.3572795391082763,-0.5255727767944336,7.165145263671875
1766001741432184600,10.8471845703125,0.1272125840187072,-0.4137845337390899,-0.3937787115573883,7.183927001953125
1766001741450966300,10.86596630859375,0.1353065520524978,-0.2705367505550384,-0.1558468788862228,7.2027087402343755
1766001741469747700,10.884747802734376,0.075441800057888,0.1340084671974182,0.1100320219993591,7.221490234375001
1766001741488529400,10.903529296875,0.0244345907121896,0.4869355857372284,0.4716639816761017,7.2402717285156255
1766001741507310800,10.922310791015626,-0.0577267222106456,0.8302416205406189,0.9635628461837769,7.259053222656251
1766001741526092500,10.941092529296874,-0.236251950263977,1.3885719776153564,1.903530955314636,7.2778349609375
1766001741544874000,10.9598740234375,-0.3460549116134643,2.6463425159454346,5.027187824249268,7.296616455078126
1766001741563655700,10.97865576171875,-0.28451026976108545,2.705443859100342,3.432372808456421,7.315398193359376
1766001741582437000,10.99743701171875,-0.3327685892581939,2.223929643630981,1.974238634109497,7.334179443359376
1766001741601218800,11.01621875,0.3362810611724853,-0.4177551567554474,1.8540509939193728,7.352961181640626
1766001741620000300,11.035000244140624,0.6656898856163025,2.256916284561157,1.4760783910751345,7.37174267578125
1766001741638782000,11.053781982421874,0.4716639816761017,2.0570108890533447,0.7651845216751099,7.3905244140625
1766001741657563400,11.0725634765625,0.607046902179718,-0.7083740830421448,0.0739909932017326,7.409305908203126
1766001741676345000,11.091344970703124,0.323911041021347,-1.2612067461013794,-0.775263786315918,7.42808740234375
1766001741695126500,11.11012646484375,-0.342542439699173,-0.858646810054779,-1.1016182899475098,7.446868896484376
1766001741713908200,11.128908203125,0.1598938554525375,-1.6477314233779907,-1.455919861793518,7.465650634765626
1766001741732689700,11.147689697265625,0.3573558926582336,-1.7046945095062256,-1.6304744482040403,7.48443212890625
1766001741751471400,11.166471435546876,-0.0073303775861859,-1.4867684841156006,-1.5825215578079224,7.503213867187502
1766001741770252800,11.185252685546876,-0.1669187992811203,-1.0148755311965942,-1.4482840299606323,7.521995117187502
1766001741789034500,11.204034423828125,0.036651886999607,-0.2535852491855621,-1.2393683195114136,7.54077685546875
1766001741807816000,11.22281591796875,0.1340848207473755,0.1480583548545837,-0.9876919984817504,7.559558349609376
1766001741826597600,11.24159765625,-0.0210748352110385,0.3235292732715606,-0.7453314065933228,7.578340087890626
1766001741845379000,11.260379150390625,-0.0658206790685653,0.3728565871715545,-0.5978075265884399,7.59712158203125
1766001741864160800,11.279160888671877,-0.1698204129934311,0.9814306497573853,-0.492586076259613,7.615903320312502
1766001741882942200,11.297942138671877,-0.2144135385751724,1.4343868494033811,-0.4102720618247986,7.634684570312502
1766001741901724000,11.316723876953125,-0.1713475733995437,1.2164608240127563,-0.6349175572395325,7.65346630859375
1766001741920505300,11.33550537109375,0.1140789985656738,0.7260891199111938,-0.9299652576446532,7.672247802734376
1766001741939287000,11.354287109375,0.0647516697645187,-0.1633299738168716,-0.8986584544181824,7.691029541015626
1766001741958068500,11.373068359375,-0.1165224537253379,-0.7175370454788208,-0.8032108545303345,7.709810791015626
1766001741976850200,11.39185009765625,0.086284652352333,-0.3710239827632904,-0.7372374534606934,7.728592529296875
1766001741995631600,11.410631591796877,0.0879645273089408,0.2277761995792389,-0.6610320210456848,7.747374023437502
1766001742014413300,11.429413330078123,-0.0525343716144561,0.6711113452911377,-0.5611556768417358,7.766155761718749
1766001742033194800,11.44819482421875,-0.0762053802609443,0.7099012136459351,-0.4534907341003418,7.784937255859375
1766001742051976400,11.4669765625,-0.0675005614757537,0.5382482409477234,-0.3574322462081909,7.803718994140625
1766001742070758000,11.4857578125,-0.0334448479115963,0.2502254843711853,-0.2804632782936096,7.822500244140625
1766001742089539600,11.50453955078125,-0.0119118634611368,-0.0092393299564719,-0.224569171667099,7.841281982421875
1766001742108321000,11.523321044921875,0.0383317656815052,-0.2932914495468139,-0.1611919403076172,7.860063476562501
1766001742127102700,11.542102783203124,0.0592538826167583,-0.4470766484737396,-0.1240819096565246,7.878845214843749
1766001742145884200,11.56088427734375,0.0386371985077858,-0.4643335938453674,-0.1086575761437416,7.897626708984375
1766001742164665900,11.579665771484375,0.0216856990009546,-0.3946950137615204,-0.1249982044100761,7.916408203125001
1766001742183447300,11.598447265625,0.006566796451807,-0.1950949430465698,-0.1570686101913452,7.935189697265625
1766001742202229000,11.61722900390625,-0.0143553223460912,0.0486401095986366,-0.1891390085220337,7.953971435546875
1766001742221010400,11.636010498046875,-0.0192422401160001,0.2201403975486755,-0.2138790339231491,7.972752929687501
1766001742239792000,11.654792236328126,-0.024129157885909,0.2899316847324371,-0.2154061943292617,7.991534667968751
1766001742258573600,11.673573486328126,-0.0335975624620914,0.307646781206131,-0.1868482679128646,8.01031591796875
1766001742277355300,11.692355224609376,-0.0332921296358108,0.2415206581354141,-0.1314122825860977,8.029097656250002
1766001742296136700,11.71113671875,-0.0368046015501022,0.1216384470462799,-0.0633008629083633,8.047879150390624
1766001742314918400,11.72991845703125,-0.0308486707508564,-0.017791436985135,0.0101556265726685,8.066660888671876
1766001742333699800,11.748699951171876,-0.023518294095993,-0.1747836917638778,0.0691040754318237,8.085442382812502
1766001742352481500,11.7674814453125,-0.0077885258942842,-0.2531270980834961,0.1140026375651359,8.104223876953125
1766001742371263000,11.786262939453126,-0.0137444576248526,-0.2311359643936157,0.1575267612934112,8.12300537109375
1766001742390044700,11.805044677734376,-0.026267185807228,-0.1553887277841568,0.212962731719017,8.141787109375002
1766001742408826000,11.823826171875,-0.0181732270866632,-0.1023962050676345,0.2870301008224487,8.160568603515625
1766001742427607800,11.84260791015625,-0.0190895237028598,-0.0739909932017326,0.3699549734592438,8.179350341796876
1766001742446389200,11.86138916015625,-0.0117591470479965,-0.0875827372074127,0.4617374241352081,8.198131591796876
1766001742465171000,11.8801708984375,0.0187840927392244,-0.033673919737339,0.593684196472168,8.216913330078125
1766001742483952400,11.898952392578124,0.0302378069609403,0.1088102906942367,0.7749583125114441,8.23569482421875
1766001742502734000,11.917734130859374,0.0195476729422807,0.1358410567045211,1.025412917137146,8.254476562499999
1766001742521515500,11.936515625,0.0303905233740806,0.0715475380420684,1.3083959817886353,8.273258056640625
1766001742540297200,11.955297119140624,0.0697913020849227,-0.128052532672882,1.501276612281799,8.29203955078125
1766001742559079000,11.974078857421874,0.1391244530677795,0.0767398849129676,1.630321741104126,8.310821289062499
1766001742577860400,11.9928603515625,0.1493564397096634,-0.021609341725707,1.7524946928024292,8.329602783203125
1766001742596642000,12.01164208984375,0.1624900251626968,-0.3365101218223572,1.821980595588684,8.348384521484377
1766001742615423500,12.030423583984376,0.1999054998159408,-0.4121046662330627,1.9342269897460935,8.367166015625003
1766001742634205200,12.049205078125,0.1198822110891342,-0.1947895139455795,1.9890520572662356,8.385947509765625
1766001742652986600,12.067986572265625,0.0302378069609403,0.3207803666591644,2.0257039070129395,8.404729003906251
1766001742671768300,12.086768310546876,-0.0044287694618105,0.5516872406005859,2.033339738845825,8.423510742187503
1766001742690549800,12.1055498046875,0.0111482823267579,0.5341249108314514,1.9669082164764404,8.442292236328125
1766001742709331500,12.12433154296875,0.0291687939316034,0.3227656781673431,1.8978805541992188,8.461073974609377
1766001742728113000,12.14311279296875,0.1237001195549964,0.2025780379772186,1.6222277879714966,8.479855224609377
1766001742746894600,12.16189453125,0.194254994392395,-0.0035888305865228,1.415450096130371,8.498636962890625
1766001742765676000,12.180676025390625,0.2730565667152405,-0.0309250298887491,1.0228166580200195,8.517418457031251
1766001742784457700,12.199457763671877,0.2782489061355591,-0.4304305911064148,0.4424951672554016,8.536200195312503
1766001742803239200,12.2182392578125,0.1631008982658386,-0.6879100799560547,-0.2520580887794494,8.554981689453125
1766001742822020900,12.237020751953125,0.264046311378479,-0.9125556349754332,-1.128801703453064,8.573763183593751
1766001742840802300,12.25580224609375,0.0198531057685613,-0.6787471175193787,-2.152763843536377,8.592544677734377
1766001742859584000,12.274583984375,-0.2141081094741821,-0.6007091403007507,-2.9639923572540283,8.611326416015626
1766001742878365400,12.293365478515623,-0.2658788859844208,-1.170493245124817,-3.861352682113648,8.630107910156248
1766001742897147100,12.312147216796877,-0.1605047136545181,-2.0085997581481934,-4.8836350440979,8.648889648437503
1766001742915928600,12.330928466796877,-0.1605047136545181,-3.267897605895996,-5.2700066566467285,8.667670898437503
1766001742934710300,12.349710205078123,-0.1605047136545181,-2.168340921401977,-3.8164541721344,8.686452636718748
1766001742953491700,12.36849169921875,0.0445931293070316,0.7943533062934875,-1.6700279712677002,8.705234130859374
1766001742972273400,12.3872734375,-0.2141081094741821,1.0189988613128662,-0.5570323467254639,8.724015869140626
1766001742991054800,12.406054931640623,-0.1385135948657989,-0.040698867291212,0.2289979308843612,8.742797363281248
1766001743009836500,12.42483642578125,0.0661261156201362,-1.0270928144454956,0.5700132250785828,8.761578857421874
1766001743028618000,12.443617919921875,0.1354592591524124,-0.7030289769172668,0.4924333691596985,8.7803603515625
1766001743047399700,12.462399658203124,-0.0099265528842806,0.2235001474618911,0.1523344069719314,8.799142089843748
1766001743066181400,12.481181396484375,-0.1018617004156112,0.6453022956848145,-0.1532506942749023,8.817923828125
1766001743084962800,12.499962890625,-0.0522289387881755,0.4122573733329773,-0.3250564336776733,8.836705322265626
1766001743103744500,12.51874462890625,0.0032070400193333,0.0167224239557981,-0.3256672918796539,8.855487060546874
1766001743122526000,12.53752587890625,0.0887281075119972,-0.2610683441162109,-0.1923460513353347,8.874268310546874
1766001743141307600,12.5563076171875,0.1036942973732948,-0.1376736462116241,0.0684932097792625,8.893050048828126
1766001743160089000,12.575089111328126,0.0704021677374839,0.3386481702327728,0.3870591819286346,8.911831542968752
1766001743178870800,12.593870849609376,-0.0036651887930929,0.7877864837646484,0.7155517339706421,8.93061328125
1766001743197652200,12.61265234375,-0.0897971242666244,0.8282563090324402,1.040684461593628,8.949394775390626
