time,seconds_elapsed,z,y,x,t
1766001743192957000,12.60795703125,2.9540483951568604,-10.258940696716309,1.0492655038833618,8.96817626953125
1766001743211738600,12.626738525390625,2.49563980102539,-10.38410758972168,0.571909487247467,8.986957763671874
1766001743230520000,12.64552001953125,7.976406574249268,-14.23563003540039,-0.1229685544967651,9.0057392578125
1766001743249301800,12.6643017578125,-14.961296081542969,13.166399002075195,-2.2084760665893555,9.02452099609375
1766001743268083200,12.683083251953123,1.311540603637695,6.168491840362549,-1.1657223105430603,9.043302490234373
1766001743286865000,12.701864990234377,-7.0736188888549805,-0.8294153213500977,-3.2873830795288086,9.062084228515626
1766001743305646300,12.720646240234377,-0.0687367916107177,18.286592483520508,2.1486968994140625,9.080865478515626
1766001743324428000,12.739427978515623,-15.067693710327148,30.55054473876953,-0.4766321182250976,9.099647216796873
1766001743343209500,12.75820947265625,-18.592090606689453,1.491313934326172,-7.908761024475098,9.118428710937499
1766001743361991200,12.7769912109375,-15.236560821533203,-8.720947265625,-7.5039567947387695,9.137210449218749
1766001743380772600,12.795772705078123,-8.933015823364258,-9.25448226928711,-6.40329647064209,9.155991943359373
1766001743399554300,12.81455419921875,-3.0009570121765137,-2.328896999359131,-3.541295289993286,9.174773437499999
1766001743427726600,12.8427265625,0.6550753116607666,0.2657203674316406,4.299805641174316,9.202945800781249
1766001743455899000,12.87089892578125,1.9905145168304443,-4.1895270347595215,6.528847694396973,9.231118164062499
1766001743474680300,12.889680419921875,2.323195457458496,-5.7728118896484375,4.170417785644531,9.249899658203125
1766001743493462000,12.9084619140625,2.168971300125122,-5.248140811920166,2.732855796813965,9.26868115234375
1766001743512243700,12.92724365234375,1.2771923542022705,-3.693580150604248,1.3017983436584473,9.287462890625
1766001743531025200,12.946025146484375,-0.1448287963867187,-2.3096399307250977,0.3372511565685272,9.306244384765625
1766001743549806800,12.964806884765624,-0.9430749416351318,0.5555009841918945,-1.549793004989624,9.325026123046873
1766001743568588300,12.98358837890625,-1.8372632265090945,6.071549415588379,-4.929628372192383,9.3438076171875
1766001743587370000,13.002369873046876,-2.998219490051269,8.425079345703125,-6.633004188537598,9.362589111328125
1766001743606151400,13.0211513671875,-1.211401343345642,2.296229362487793,-2.8043391704559326,9.38137060546875
1766001743624932900,13.039932861328126,2.1048784255981445,-3.0279555320739746,0.9707932472229004,9.400152099609375
1766001743643714600,13.058714599609376,5.998533248901367,-4.0408124923706055,1.2007489204406738,9.418933837890625
1766001743662496000,13.07749609375,8.259110450744629,-2.475712299346924,1.6098634004592896,9.43771533203125
1766001743681277700,13.096277587890626,7.03264045715332,-0.3312892913818359,2.260829448699951,9.456496826171875
1766001743700059100,13.11505908203125,3.619460821151733,1.362504959106445,1.3973006010055542,9.4752783203125
1766001743718840800,13.1338408203125,0.6019160747528076,0.8742780685424805,0.736817479133606,9.49406005859375
1766001743737622300,13.152622314453126,-1.2326185703277588,0.1186285018920898,-0.8863999247550964,9.512841552734375
1766001743756404000,13.171404052734376,-1.4716570377349854,-0.1436977386474609,-1.5914034843444824,9.531623291015626
1766001743775185400,13.190185302734376,-0.9237394332885742,0.0057439804077148,-0.5708277225494385,9.550404541015626
1766001743793967000,13.208967041015624,-0.2562015652656555,0.1068000793457031,0.1091751158237457,9.569186279296874
1766001743812748500,13.22774853515625,0.2400704622268676,-0.1225996017456054,-0.0270037651062011,9.5879677734375
1766001743831530200,13.2465302734375,0.4104635715484619,-0.0494728088378906,0.2214378118515014,9.60674951171875
1766001743850311700,13.265311767578124,0.1548706293106079,0.3469457626342773,0.1891899704933166,9.625531005859374
1766001743869093400,13.28409326171875,-0.1911640465259552,0.1455583572387695,-0.1426287293434143,9.6443125
1766001743887874800,13.302874755859374,-0.2438095808029174,-0.0168275833129882,-0.3370876312255859,9.663093994140624
1766001743906656500,13.321656494140624,0.0201367437839508,0.1718854904174804,-0.084949254989624,9.681875732421874
1766001743925438000,13.34043798828125,0.3942300677299499,-0.0287714004516601,0.2512057423591614,9.7006572265625
1766001743944219600,13.3592197265625,0.5316486954689026,-0.0662136077880859,0.1302596926689148,9.71943896484375
1766001743963001000,13.3780009765625,0.7045079469680786,0.0455293655395507,0.1677543818950653,9.73822021484375
1766001743981782800,13.39678271484375,0.8625727295875549,0.0271310806274414,0.1399955749511718,9.757001953125
1766001744000564200,13.415564208984376,0.9032689332962036,0.0781888961791992,0.1641170978546142,9.775783447265626
1766001744019346000,13.434345947265625,0.8617119789123535,0.0174446105957031,0.2607914507389068,9.794565185546874
1766001744038127400,13.45312744140625,0.7320564985275269,-0.0509929656982421,0.497686505317688,9.8133466796875
1766001744056908800,13.47190869140625,0.6515141725540161,-0.0680112838745117,0.4177214503288269,9.8321279296875
1766001744075690500,13.4906904296875,0.8643540143966675,-0.0178442001342773,0.3319844603538513,9.85090966796875
1766001744094472000,13.509471923828125,1.418673753738403,-0.075662612915039,0.381928026676178,9.869691162109374
1766001744113253600,13.528253662109377,1.912980318069458,-0.1114673614501953,0.2300516068935394,9.888472900390626
1766001744132035000,13.54703515625,2.4531893730163574,-0.0961971282958984,-0.006411075592041,9.90725439453125
1766001744150816800,13.565816650390625,3.1474080085754395,-0.1226625442504882,-0.2051791548728943,9.926035888671874
1766001744169598500,13.584598388671877,3.999902486801148,-0.3669929504394531,-0.2791700959205627,9.944817626953126
1766001744188380000,13.6033798828125,5.1682868003845215,-0.5958118438720703,-0.2287683486938476,9.96359912109375
1766001744207161600,13.62216162109375,6.296567916870117,-0.7636709213256836,-0.4991307258605957,9.982380859375
1766001744225943000,13.640943115234377,6.407296657562256,-0.5653200149536133,-0.8019061088562012,10.001162353515626
1766001744244724500,13.659724365234377,5.685697555541992,-0.0636405944824218,-0.2741187214851379,10.019943603515626
1766001744263506200,13.678506103515623,4.198217391967773,-0.28680419921875,0.9166780710220336,10.038725341796873
1766001744282287600,13.69728759765625,2.1160171031951904,0.1495981216430664,-0.987580418586731,10.057506835937499
1766001744301069300,13.7160693359375,1.2379648685455322,0.6169290542602539,-3.506978750228882,10.076288574218749
1766001744319851000,13.73485107421875,1.1278376579284668,0.0496129989624023,-2.7429213523864746,10.095070312499999
1766001744338632400,13.753632568359375,-1.7765917778015137,-0.1788139343261718,0.1565140336751938,10.113851806640625
1766001744357414100,13.7724140625,-4.882492065429688,-1.75101900100708,3.3591952323913574,10.132633300781249
1766001744376195600,13.791195556640623,-2.7379345893859863,-6.86634635925293,3.219151496887207,10.151414794921873
1766001744394977300,13.809977294921875,-4.118788242340088,-7.749098777770996,-0.0441863238811492,10.170196533203125
1766001744413758700,13.8287587890625,-5.189136981964111,-6.362962245941162,-0.2171658128499984,10.18897802734375
1766001744432540200,13.8475400390625,-5.000673294067383,-1.6113286018371582,-1.3604360818862915,10.207759277343749
1766001744451321900,13.86632177734375,-6.513678550720215,3.106217384338379,-0.6612187027931213,10.226541015625
1766001744470103300,13.885103271484375,-11.247225761413574,4.824250221252441,-0.1202449947595596,10.245322509765625
1766001744488885000,13.903885009765624,-13.732800483703612,0.8761272430419922,0.8624231219291687,10.264104248046873
1766001744507666400,13.92266650390625,-15.811409950256348,5.610796928405762,0.6053949594497681,10.2828857421875
1766001744526448000,13.9414482421875,-17.811927795410156,13.33414363861084,-0.0137134082615375,10.30166748046875
1766001744545229600,13.9602294921875,-16.11178970336914,9.682486534118652,-2.93464994430542,10.32044873046875
1766001744564011300,13.97901123046875,-11.611693382263184,10.181840896606444,-5.367165565490723,10.33923046875
1766001744582792700,13.997792724609376,-6.185643196105957,10.159523010253906,-4.217604637145996,10.358011962890625
1766001744601574400,14.016574462890626,-0.1806252002716064,0.6375102996826172,4.471152305603027,10.376793701171875
1766001744620355800,14.03535595703125,6.370155811309815,-8.350610733032227,7.533042430877685,10.3955751953125
1766001744639137500,14.054137451171876,11.735785484313965,-8.781625747680664,6.152000427246094,10.414356689453125
1766001744657919000,14.0729189453125,9.228466987609863,-10.507294654846191,5.623392105102539,10.43313818359375
1766001744676700700,14.09170068359375,8.15112018585205,-10.25805377960205,0.2953931093215942,10.451919921875
1766001744704873000,14.119873046875,4.882955074310303,-11.32724380493164,-1.2274855375289917,10.48009228515625
1766001744723654700,14.138654541015624,1.8415964841842647,-10.681614875793455,3.4672679901123047,10.498873779296874
1766001744742436000,14.15743603515625,0.2626368701457977,-9.75945281982422,3.5184319019317627,10.5176552734375
1766001744761217800,14.1762177734375,-0.3707677721977234,-9.880278587341309,1.3269202709197998,10.53643701171875
1766001744779999200,14.194999267578124,0.3788225352764129,-9.929452896118164,0.7542556524276733,10.555218505859374
1766001744798781000,14.213781005859374,1.7375850677490234,-9.567110061645508,0.6180387735366821,10.574000244140624
1766001744817562400,14.232562255859374,2.9417388439178467,-9.621432304382324,0.9510707855224608,10.592781494140624
1766001744836344000,14.251343994140624,3.6627955436706543,-9.686253547668455,1.3711555004119873,10.611563232421874
1766001744855125500,14.27012548828125,3.8727681636810303,-9.672091484069824,2.020660877227783,10.6303447265625
1766001744873907200,14.2889072265625,3.650102853775024,-9.733333587646484,1.8192344903945925,10.64912646484375
1766001744892689000,14.30768896484375,4.502508163452148,-10.755581855773926,-0.0467404723167419,10.667908203125
1766001744911470300,14.32647021484375,7.507126808166504,-14.391000747680664,0.2410916090011596,10.686689453125
1766001744930251800,14.345251708984376,-1.4044148921966553,23.007308959960938,-1.1343480348587036,10.705470947265626
1766001744949033500,14.364033447265625,-4.80122184753418,4.4480881690979,8.185012817382812,10.724252685546874
1766001744967815000,14.38281494140625,-5.379505157470703,1.493364334106445,-8.885268211364746,10.7430341796875
1766001744986596600,14.4015966796875,-10.7821044921875,7.4028120040893555,1.0316768884658811,10.76181591796875
1766001745005378000,14.4203779296875,-13.566268920898438,19.05394172668457,0.8567606210708618,10.78059716796875
1766001745024159700,14.43915966796875,-15.629900932312012,5.4637956619262695,-2.615969657897949,10.79937890625
1766001745042941200,14.457941162109377,-15.31309413909912,-1.3721318244934082,-2.9482994079589844,10.818160400390626
1766001745061723000,14.476722900390625,-11.908666610717772,-5.797611713409424,-0.4537611603736877,10.836942138671875
1766001745080504300,14.49550439453125,-6.413486003875732,-7.47780704498291,0.3284695148468017,10.8557236328125
1766001745099286000,14.5142861328125,-0.780510425567627,-3.610511779785156,1.1600725650787354,10.87450537109375
1766001745118067500,14.5330673828125,1.844449639320373,0.7546825408935547,3.6308865547180176,10.89328662109375
1766001745136849200,14.55184912109375,2.206543207168579,0.7346487045288086,5.589473724365234,10.912068359375
1766001745155630600,14.570630615234377,2.194908142089844,-2.81387710571289,4.085371017456055,10.930849853515626
1766001745174412300,14.589412353515623,2.2540998458862305,-5.418094635009766,1.8321257829666135,10.949631591796873
1766001745193193700,14.60819384765625,2.424916505813598,-5.275304317474365,0.0097888112068176,10.968413085937499
