time,seconds_elapsed,z,y,x,t
1766001747226297300,16.64129736328125,0.088117241859436,-0.1366046369075775,-0.5946004986763,12.978039794921877
1766001747245079000,16.6600791015625,0.0500909127295017,-0.1097265854477882,-0.6278926134109497,12.996821533203125
1766001747263860500,16.678860595703124,0.0157297682017087,-0.0494036898016929,-0.6604211926460266,13.01560302734375
1766001747282642200,16.69764208984375,0.0125227281823754,-0.0819322392344474,-0.7208967804908752,13.034384521484377
1766001747301423600,16.716423583984376,0.0514653585851192,-0.085597425699234,-0.8123738169670105,13.053166015625003
1766001747320205300,16.735205322265625,-0.0335975624620914,-0.0907897800207138,-0.9020181894302368,13.071947753906251
1766001747338986800,16.75398681640625,-0.1110246703028678,-0.1059086844325065,-0.9206495881080629,13.090729248046877
1766001747357768400,16.7727685546875,-0.0653625279664993,-0.1550832986831665,-0.811610221862793,13.109510986328125
1766001747376550000,16.7915498046875,0.0256563201546669,-0.1961639523506164,-0.5851321220397949,13.128292236328125
1766001747395331300,16.810331298828125,-0.0106901340186595,0.1028543561697006,-0.2696204483509063,13.147073730468751
1766001747414113000,16.829113037109376,-0.0623082071542739,0.6088030934333801,0.0237473677843809,13.165855468750003
1766001747432894500,16.84789453125,-0.0236710105091333,0.6466767191886902,0.2393826395273208,13.184636962890625
1766001747451676200,16.86667626953125,0.0552832633256912,0.1439350098371505,0.3734674453735351,13.203418701171877
1766001747470457600,16.88545751953125,0.0956003367900848,-0.2184605151414871,0.5167152285575867,13.222199951171877
1766001747489239300,16.9042392578125,0.0398589260876178,-0.1947895139455795,0.7216603755950928,13.240981689453125
1766001747508020700,16.923020751953125,0.0607810467481613,0.0736855641007423,0.9487493634223938,13.259763183593751
1766001747526802200,16.94180224609375,0.0803287178277969,0.2890154123306274,1.1987457275390625,13.278544677734377
1766001747545583900,16.960583984375,0.1101083755493164,0.4400517046451568,1.347949504852295,13.297326416015625
1766001747564365300,16.979365234375,0.1490510106086731,0.7908408045768738,1.5032618045806885,13.316107666015625
1766001747583147000,16.99814697265625,0.0763580948114395,0.8190932869911194,1.64162278175354,13.334889404296877
1766001747601928400,17.016928466796877,0.0685695707798004,0.7360156774520874,1.7610467672348022,13.353670898437503
1766001747620710000,17.0357099609375,0.0503963455557823,0.6367501616477966,1.7653228044509888,13.372452392578126
1766001747639491600,17.05449169921875,-0.0058032153174281,0.4356229603290558,1.860617756843567,13.391234130859377
1766001747658273000,17.07327294921875,-0.1137735620141029,0.2062432169914245,1.7804417610168457,13.410015380859377
1766001747677054700,17.0920546875,-0.0994182452559471,0.1020907759666442,1.5629738569259644,13.428797119140626
1766001747695836200,17.110836181640625,-0.104305163025856,-0.0736855641007423,1.5698461532592771,13.447578613281252
1766001747714617600,17.12961767578125,-0.0737619251012802,0.054443322122097,1.324278473854065,13.466360107421878
1766001747733399300,17.1483994140625,-0.0561995580792427,-0.1692859083414077,1.1358267068862915,13.485141845703126
1766001747752180700,17.1671806640625,0.1056796088814735,-0.0455857850611209,1.0770310163497925,13.503923095703126
1766001747770962400,17.18596240234375,0.384386658668518,0.036422811448574,0.9982293844223022,13.522704833984378
1766001747789743900,17.204743896484374,0.539851725101471,0.0071013029664754,0.7922152876853943,13.541486328125
1766001747808525300,17.223525390625,0.3646862804889679,-0.0410043001174926,0.5739838480949402,13.560267822265626
1766001747827307000,17.24230712890625,0.1217148080468177,0.0465020798146724,0.1992182731628418,13.579049560546878
1766001747846088400,17.26108837890625,0.0059559317305684,-0.0245109498500823,-0.2590830326080322,13.597830810546878
1766001747864870000,17.279869873046874,-0.1443168073892593,0.1037706509232521,-0.8416953086853027,13.6166123046875
1766001747883651600,17.298651611328125,-0.1293506175279617,0.6576722860336304,-1.5057053565979004,13.635394042968752
1766001747902433000,17.31743310546875,-0.0343611426651477,0.526030957698822,-2.301051378250122,13.654175537109378
1766001747921214500,17.33621435546875,-0.1792888194322586,-0.7905353903770447,-3.178100347518921,13.672956787109378
1766001747939996200,17.35499609375,0.2513708472251892,-2.185292482376098,-4.104782104492188,13.691738525390626
1766001747958777600,17.373777587890626,0.273667424917221,-1.9713369607925413,-5.186623573303223,13.710520019531252
1766001747977559300,17.392559326171874,0.2513708472251892,-1.9713369607925413,-5.180667877197266,13.7293017578125
1766001747996340700,17.4113408203125,-0.0468838736414909,-1.9713369607925413,-3.217959403991699,13.748083251953126
1766001748015122400,17.430122314453126,-0.0887281075119972,-0.2780198454856872,-0.9901354312896729,13.766864746093752
1766001748033903900,17.44890380859375,-0.0468838736414909,0.1362992078065872,-0.3198640644550323,13.785646240234378
1766001748052685300,17.467685302734374,0.1032361462712287,-0.3691914081573486,0.2062432169914245,13.804427734375
1766001748071467000,17.486467041015626,0.1858556121587753,-0.4172970056533813,0.2491564750671386,13.823209472656252
1766001748090248400,17.50524853515625,0.075899951159954,0.4453967809677124,-0.0697149410843849,13.841990966796878
1766001748109030000,17.52402978515625,-0.0597120337188243,0.9579123258590698,-0.3963748812675476,13.860772216796878
1766001748127811600,17.5428115234375,0.0319176837801933,0.7303652167320251,-0.6005564332008362,13.879553955078126
1766001748146593000,17.561593017578126,0.1082757785916328,0.2373973280191421,-0.6530908346176147,13.898335449218752
1766001748165374700,17.580374755859374,0.2119700759649276,-0.1222493126988411,-0.561766505241394,13.9171171875
1766001748184156200,17.59915625,0.2076940238475799,-0.0180968698114156,-0.3574322462081909,13.935898681640627
1766001748202937600,17.6179375,0.1117882579565048,0.4154644012451172,-0.0694095119833946,13.954679931640626
1766001748221719300,17.63671923828125,0.0172569304704666,0.6688205599784851,0.2589302957057953,13.973461669921875
1766001748240500700,17.655500732421874,-0.0598647482693195,0.8047379851341248,0.7476221323013306,13.9922431640625
1766001748259282400,17.674282470703126,-0.1705839931964874,1.093677043914795,1.3930007219314575,14.011024902343753
1766001748278063900,17.69306396484375,-0.2997818887233734,1.3697879314422607,2.5426483154296875,14.029806396484375
1766001748296845300,17.71184521484375,-0.4063777923583984,2.6884922981262207,6.000448226928711,14.048587646484375
1766001748315627000,17.730626953125,-0.3530798405408859,3.3050074577331543,3.365941286087036,14.067369384765627
1766001748334408400,17.749408447265626,-0.4456258714199066,1.6607122421264648,2.570442676544189,14.086150878906253
1766001748353190000,17.76818994140625,0.3000873327255249,-0.2535852491855621,1.840001106262207,14.104932373046875
1766001748371971600,17.7869716796875,0.7273872494697571,1.5394556522369385,1.4896701574325562,14.123714111328127
1766001748390753000,17.8057529296875,0.21945317834615705,1.750356674194336,0.7480802536010742,14.142495361328127
1766001748409534500,17.824534423828126,-0.2325867712497711,0.0753654390573501,0.2745073735713959,14.161276855468753
1766001748428316200,17.843316162109375,0.1388190239667892,-0.2432005405426025,-0.4550178945064544,14.180058593750001
1766001748447097600,17.86209765625,-0.1960875988006591,-0.3401753306388855,-0.8306997418403625,14.198840087890627
1766001748465879000,17.880879150390626,0.1073594838380813,-1.4267510175704956,-1.1013128757476809,14.217621582031253
1766001748484660700,17.89966064453125,0.2895499169826507,-1.874820351600647,-1.2491421699523926,14.236403076171875
1766001748503442200,17.918442138671875,0.125074565410614,-1.9397248029708865,-1.208672285079956,14.255184570312501
1766001748522223600,17.9372236328125,-0.0565049909055233,-1.4516438245773315,-1.0733658075332642,14.273966064453127
1766001748541005300,17.95600537109375,-0.1514944583177566,-0.4693732261657715,-0.8907172083854675,14.292747802734375
1766001748559786800,17.974786865234375,-0.2138026654720306,0.5938369035720825,-0.6394990682601929,14.311529296875001
1766001748578568200,17.993568115234375,-0.2244928032159805,1.0701587200164795,-0.3969857394695282,14.330310546875001
1766001748597350000,18.012349853515627,-0.2124282270669937,1.1436152458190918,-0.2073122411966323,14.349092285156253
1766001748616131300,18.03113134765625,-0.1343902498483657,0.6427060961723328,-0.1057559624314308,14.367873779296875
1766001748634912800,18.049912841796875,-0.0517707914113998,0.2662606835365295,-0.0600938238203525,14.386655273437501
1766001748653694500,18.068694580078127,-0.0311541035771369,0.0122936535626649,-0.0144316805526614,14.405437011718753
1766001748672476000,18.087475830078127,-0.0239764433354139,-0.0461966507136821,-0.0275652725249528,14.424218261718753
1766001748691257300,18.10625732421875,0.0255036037415266,-0.0672714859247207,-0.0961348414421081,14.442999755859375
1766001748710039000,18.1250390625,0.009315688163042,-0.1700494885444641,-0.1743255406618118,14.461781494140627
1766001748728820500,18.143820556640627,0.0250454563647508,-0.2763399481773376,-0.2642753720283508,14.480562988281253
1766001748747602000,18.162601806640627,0.0378736145794391,-0.3113119602203369,-0.330706924200058,14.499344238281253
1766001748766383600,18.181383544921875,0.0290160775184631,-0.2491564750671386,-0.376827210187912,14.518125976562501
1766001748785165000,18.2001650390625,0.0184786599129438,-0.1489746421575546,-0.4215730428695678,14.536907470703127
1766001748803946500,18.218946533203123,0.0082466742023825,-0.0284815710037946,-0.4264599680900574,14.55568896484375
1766001748822728200,18.23772827148437,-0.019700389355421,0.0654388889670372,-0.4458549320697784,14.574470703124998
1766001748841509600,18.25650952148437,0.0171042140573263,-0.022220205515623,-0.4832704067230224,14.593251953124998
1766001748860291000,18.275291015625,0.0394007787108421,-0.2471711635589599,-0.5425242781639099,14.612033447265627
1766001748879072800,18.29407275390625,0.0160352010279893,-0.3884336352348327,-0.6019308567047119,14.630815185546876
1766001748897854200,18.312854248046875,-0.0206166859716177,-0.4541015923023224,-0.6347648501396179,14.649596679687502
1766001748916635600,18.3316357421875,-0.0581848695874214,-0.5300015807151794,-0.6165916323661804,14.668378173828128
1766001748935417300,18.350417236328123,-0.0610864795744419,-0.6165916323661804,-0.5497019290924072,14.68715966796875
1766001748954198800,18.36919873046875,-0.0577267222106456,-0.6705004572868347,-0.4548651874065399,14.705941162109376
1766001748972980200,18.38798022460937,-0.0357355885207653,-0.5631409883499146,-0.3016908466815948,14.724722656249998
1766001748991762000,18.406761962890624,-0.0401643589138984,-0.4366919696331024,-0.0848338454961776,14.74350439453125
1766001749010543400,18.42554345703125,-0.0059559317305684,-0.2456440031528473,0.1772271394729614,14.762285888671876
1766001749029324800,18.44432470703125,0.0438295491039752,-0.1773798614740371,0.4583776593208313,14.781067138671876
1766001749048106500,18.4631064453125,0.0926987305283546,0.0585666596889495,0.7523563504219055,14.799848876953128
1766001749066888000,18.481887939453124,0.1165224537253379,0.2651916742324829,1.0721440315246582,14.81863037109375
1766001749085669400,18.50066943359375,0.1841757297515869,0.3940841555595398,1.454087257385254,14.837411865234376
1766001749104451000,18.519451171875,0.3162752389907837,0.0107664912939071,1.850843906402588,14.856193603515628
1766001749123232500,18.538232421875,0.3724747896194458,-0.5391645431518555,1.980958104133606,14.874974853515628
1766001749142014200,18.55701416015625,0.2952004075050354,-0.252210795879364,2.0031020641326904,14.893756591796876
1766001749160795600,18.57579565429688,0.0736092031002044,0.2184605151414871,2.010890483856201,14.912538085937506
1766001749179577000,18.5945771484375,-0.1079703494906425,0.8161917328834534,2.007225275039673,14.931319580078128
1766001749198358500,18.613358642578124,-0.1475238502025604,0.9191223978996276,1.8783328533172607,14.95010107421875
