time,seconds_elapsed,z,y,x,t
1766001576013595400,3.966595458984375,0.8497129082679749,0.3432296514511108,1.1598031520843506,2.056464111328125
1766001576032375800,3.985375732421875,0.893542468547821,0.3902662396430969,1.36062490940094,2.0752443847656252
1766001576051156200,4.00415625,0.8559742569923401,0.5745946764945984,1.54220449924469,2.09402490234375
1766001576069936600,4.0229365234375,0.7982475757598877,0.6089558005332947,1.6281837224960327,2.11280517578125
1766001576088717300,4.04171728515625,0.7070759534835815,0.5939896106719971,1.7031673192977903,2.1315859374999997
1766001576116888000,4.06988818359375,0.3402516841888428,0.6903535723686218,1.688812017440796,2.1597568359374995
1766001576135668500,4.08866845703125,0.2451094985008239,0.8597158193588257,1.624976634979248,2.178537109375
1766001576154449000,4.107448974609375,0.3796524703502655,0.903850793838501,1.4876848459243774,2.197317626953125
1766001576173229600,4.1262294921875,0.5041161775588989,0.7917571067810059,1.3184752464294434,2.2160981445312498
1766001576192010000,4.145010009765625,0.5338957905769348,0.6141481995582581,1.2216532230377195,2.2348786621093746
1766001576210790400,4.163790283203125,0.5589412450790405,0.4117992222309112,1.092455267906189,2.2536589355468744
1766001576229571000,4.182571044921875,0.5755873322486877,0.2250273078680038,0.8354339599609375,2.272439697265625
1766001576248351500,4.2013515625,0.4776962697505951,0.107283130288124,0.4116465151309967,2.29122021484375
1766001576267132000,4.2201318359375,0.0537560991942882,-0.2015090137720108,-0.1033125072717666,2.3100004882812497
1766001576285912600,4.23891259765625,-0.1183550506830215,-0.8076395988464355,-0.8015309572219849,2.3287812499999996
1766001576304693000,4.25769287109375,-0.1658497899770736,-0.7774018049240112,-1.3749802112579346,2.3475615234374994
1766001576323473400,4.276473388671875,-0.7736602425575256,-0.4815905094146728,-1.544037103652954,2.366342041015625
1766001576342254000,4.295254150390625,-1.971566081047058,-1.0287725925445557,-3.3636505603790283,2.385122802734375
1766001576361034500,4.314034423828125,-1.8542799949646,-0.6269763112068176,-4.55224084854126,2.4039030761718747
1766001576379815000,4.33281494140625,-2.478431224822998,-1.3885719776153564,-4.7614617347717285,2.4226835937499995
1766001576407985700,4.360985595703125,-0.6549233794212344,-0.7121919989585876,-2.938183307647705,2.450854248046875
1766001576436156400,4.389156494140625,0.5444332361221313,1.3068687915802002,0.1402698308229446,2.479025146484375
1766001576454936800,4.407936767578125,0.7240274548530579,0.4928915202617645,0.7647263407707214,2.4978054199218747
1766001576473717500,4.426717529296875,0.7742711305618286,-1.0341176986694336,0.9430988430976868,2.5165861816406245
1766001576492498000,4.445497802734375,0.9408844709396362,-0.2432005405426025,0.5672643184661865,2.5353664550781243
1766001576511278600,4.464278564453125,-0.0865900814533233,0.6431642770767212,-0.0382554084062576,2.554147216796875
1766001576530059000,4.48305908203125,-0.6742420196533203,0.7141773104667664,-0.5500074028968811,2.572927734375
1766001576548839400,4.50183935546875,-0.6919570565223694,0.3139081299304962,-0.8219949007034302,2.5917080078124997
1766001576567620000,4.5206201171875,-0.6044507026672363,-0.5153408050537109,-0.8511636853218079,2.6104887695312495
1766001576586400500,4.539400390625,-0.3323104381561279,-0.9609666466712952,-0.7412080764770508,2.6292690429687493
1766001576605181000,4.558180908203125,-0.1371391415596008,-0.7790816426277161,-0.6113992929458618,2.648049560546875
1766001576623961300,4.57696142578125,-0.2057087123394012,-0.1164461001753807,-0.5000692009925842,2.666830078125
1766001576642742000,4.595741943359375,-0.2806923687458038,0.4501309990882873,-0.3169624507427215,2.6856105957031247
1766001576661522400,4.6145224609375,-0.2490801066160202,0.586048424243927,-0.1101847365498542,2.7043911132812495
1766001576680302800,4.633302734375,-0.1492037177085876,0.5606974959373474,0.0877354517579078,2.72317138671875
1766001576699083500,4.65208349609375,-0.0358883067965507,0.5474112033843994,0.3281107544898987,2.7419521484375
1766001576717864000,4.670864013671875,0.0983492285013198,0.8447496294975281,0.608497679233551,2.760732666015625
1766001576736644400,4.689644287109375,0.1259908676147461,0.7845794558525085,1.307479739189148,2.7795129394531246
1766001576764815400,4.7178154296875,0.0983492285013198,0.8146645426750183,1.304807186126709,2.8076840820312494
1766001576783595800,4.736595703125,0.1259908676147461,-1.128954529762268,1.735237717628479,2.82646435546875
1766001576802376200,4.755376220703125,-0.0609337612986564,1.2021055221557615,1.30213463306427,2.845244873046875
1766001576821156600,4.774156494140625,0.8581122756004333,0.052152581512928,0.8197041749954224,2.8640251464843747
1766001576839937300,4.792937255859375,-1.1421644687652588,1.658116102218628,2.047084331512451,2.8828059082031245
1766001576858717700,4.8117177734375,0.5668824911117554,-0.4435641765594482,-1.245018720626831,2.9015864257812494
1766001576877498000,4.830498046875,0.5952877402305603,-2.276311159133911,-2.2931101322174072,2.92036669921875
1766001576896278800,4.84927880859375,-0.641866147518158,-1.308854103088379,-1.2999966144561768,2.9391474609375
1766001576915059200,4.86805908203125,-0.8967494964599609,-1.1856122016906738,-1.5487712621688845,2.9579277343749997
1766001576933839600,4.886839599609375,-0.694247841835022,-0.2778671085834503,-1.429347276687622,2.9767082519531245
1766001576952620300,4.905620361328125,-0.7658717036247253,0.3285689055919647,-1.2621229887008667,2.9954890136718744
1766001576971400700,4.924400634765625,-0.7932079434394836,0.2395353466272354,-1.0064760446548462,3.014269287109375
1766001576990181000,4.94318115234375,-0.5203040838241577,0.2635118067264557,-0.7870228886604309,3.0330498046875
1766001577008961800,4.9619619140625,-0.22937972843647,0.1434768587350845,-0.5765799880027771,3.0518305664062497
1766001577027742200,4.9807421875,-0.1806632578372955,0.0261908266693353,-0.3902662396430969,3.0706108398437495
1766001577046522600,4.999522705078125,-0.1293506175279617,0.1558468788862228,-0.2783252596855163,3.0893913574218743
1766001577065303300,5.01830322265625,-0.0647516697645187,0.4011090993881225,-0.1886808574199676,3.108171875
1766001577084083700,5.037083740234375,-0.0004581485991366,0.3038288652896881,-0.1802814751863479,3.126952392578125
1766001577102864100,5.055864013671875,0.006566796451807,0.0414624474942684,-0.2207512557506561,3.1457326660156246
1766001577121644800,5.074644775390625,-0.0456621423363685,0.0074067353270947,-0.260915607213974,3.1645134277343745
1766001577140425200,5.09342529296875,-0.1217148080468177,0.0866664424538612,-0.3484219908714294,3.1832939453124993
1766001577159205600,5.11220556640625,-0.2066250145435333,0.1532506942749023,-0.4357756674289703,3.20207421875
1766001577177986300,5.130986328125,-0.2680169343948364,0.1036179363727569,-0.4843394160270691,3.22085498046875
1766001577196766700,5.1497666015625,-0.2849684059619903,0.0819322392344474,-0.4721221029758453,3.2396352539062496
1766001577215547100,5.168547119140625,-0.2313650399446487,0.1014799103140831,-0.4301251769065857,3.2584157714843744
1766001577243718000,5.1967177734375,-0.1886045038700103,0.0489455386996269,-0.3725511431694031,3.28658642578125
1766001577262498600,5.21549853515625,-0.1601992845535278,0.0090866135433316,-0.3635408878326416,3.3053671875
1766001577281279000,5.234279052734375,-0.1434005051851272,0.231441393494606,-0.3850739002227783,3.3241477050781247
1766001577300059400,5.253059326171875,-0.2037234008312225,0.455781489610672,-0.4492146968841553,3.3429279785156245
1766001577318840000,5.271840087890625,-0.2816086709499359,0.5093848705291748,-0.4896844923496246,3.3617087402343744
1766001577337620500,5.290620361328125,-0.310166597366333,0.4018726646900177,-0.4918225109577179,3.380489013671875
1766001577356401000,5.30940087890625,-0.3039052188396454,0.2680932879447937,-0.464486300945282,3.39926953125
1766001577375181600,5.328181640625,-0.323911041021347,0.2690095901489258,-0.3762163519859314,3.4180502929687497
1766001577403352300,5.356352294921875,-0.2296851575374603,0.2048687785863876,-0.1724929362535476,3.4462209472656244
1766001577422132700,5.3751328125,-0.1660024970769882,0.0365755297243595,-0.0289397183805704,3.46500146484375
1766001577440913200,5.3939130859375,-0.1366809904575348,-0.1621082425117492,0.0603992566466331,3.48378173828125
1766001577459693800,5.41269384765625,-0.1565341055393219,-0.213420882821083,0.1286633908748626,3.5025625
1766001577478474200,5.43147412109375,-0.13423752784729,-0.1995237022638321,0.1824194937944412,3.5213427734374996
1766001577497254700,5.450254638671875,-0.1305723488330841,-0.2031888961791992,0.2271653413772583,3.5401232910156244
1766001577516035300,5.469035400390625,-0.1128572672605514,-0.2012035846710205,0.2625955045223236,3.558904052734375
1766001577534815700,5.487815673828125,-0.1145371496677398,-0.2077703773975372,0.2795470058917999,3.577684326171875
1766001577553596200,5.50659619140625,-0.1336266696453094,-0.2399934977293014,0.2784779667854309,3.5964648437499998
1766001577572376800,5.525376953125,-0.1631008982658386,-0.1943313628435135,0.2694677114486694,3.6152456054687496
1766001577591157200,5.5441572265625,-0.2128863781690597,-0.1850156635046005,0.2603047490119934,3.6340258789062494
1766001577609937700,5.562937744140625,-0.2597702443599701,-0.174172818660736,0.2447277009487152,3.652806396484375
1766001577628718300,5.58171826171875,-0.3324631452560425,-0.1860846877098083,0.245338574051857,3.6715869140625
1766001577647498800,5.600498779296875,-0.3720166385173797,-0.3271944522857666,0.245338574051857,3.6903674316406248
1766001577666279200,5.619279052734375,-0.3130682110786438,-0.5622246861457825,0.2486983239650726,3.7091477050781245
1766001577694450000,5.647449951171875,-0.2367101013660431,-0.7760273218154907,0.2486983239650726,3.737318603515625
1766001577713230600,5.666230712890625,-0.2231183648109436,-0.788550078868866,0.2705367505550384,3.756099365234375
1766001577732011000,5.685010986328125,-0.2194531708955764,-0.7969494462013245,0.2910007238388061,3.774879638671875
1766001577750791400,5.70379150390625,-0.1792888194322586,-0.7352521419525146,0.3197113573551178,3.7936601562499996
1766001577769572000,5.722572021484375,-0.0913242846727371,-0.6249909996986389,0.3667479455471039,3.8124406738281245
1766001577788352500,5.7413525390625,0.0601701810956001,-0.4962512850761413,0.4402044415473938,3.83122119140625
1766001577807133000,5.7601328125,0.2359465211629867,-0.3803396821022033,0.5385536551475525,3.85000146484375
1766001577825913600,5.77891357421875,0.4101957082748413,-0.3007745444774627,0.6112465858459473,3.8687822265625
1766001577844694000,5.797694091796875,0.4954113364219665,-0.2968039214611053,0.6149117350578308,3.8875627441406246
1766001577863474400,5.816474365234375,0.6073523163795471,-0.6286562085151672,0.6170498132705688,3.9063430175781244
1766001577882255000,5.835255126953125,0.9920443892478944,-1.190346360206604,0.7204386591911316,3.925123779296875
1766001577901035500,5.854035400390625,1.2319614887237549,-1.524489402770996,0.8332959413528442,3.943904052734375
1766001577919816000,5.87281591796875,1.1898118257522583,-1.5139520168304443,0.9350048899650574,3.9626845703124998
1766001577938596600,5.8915966796875,1.0494656562805176,-1.088026523590088,0.98631751537323,3.9814653320312496
1766001577966767400,5.919767333984375,0.8428406715393066,-0.0558177679777145,0.8320741653442383,4.009635986328124
1766001577985547800,5.9385478515625,0.5583304166793823,0.4128682315349579,0.5019017457962036,4.02841650390625
1766001578004328200,5.957328125,0.2028071135282516,0.5887972712516785,0.0901789143681526,4.04719677734375
1766001578023108900,5.97610888671875,-0.0572685748338699,0.4933496713638305,-0.2948186099529266,4.0659775390625
1766001578041889300,5.99488916015625,-0.3037525117397308,0.3129918277263641,-0.6564505696296692,4.0847578124999995
1766001578060669700,6.013669677734375,-0.5694786906242371,0.327041745185852,-0.9557743072509766,4.103538330078125
