time,seconds_elapsed,z,y,x,t
1766001578079450400,6.032450439453125,-0.8533781170845032,0.2751182317733764,-1.089859127998352,4.122319091796875
1766001578098230800,6.051230712890625,-0.7507528066635132,0.2612210512161255,-1.0408371686935425,4.141099365234375
1766001578117011500,6.070011474609375,-0.4636463820934295,0.5442041754722595,-0.8847612738609314,4.159880126953125
1766001578135791900,6.0887919921875,-0.4503600597381592,0.4392881393432617,-0.7102066874504089,4.1786606445312495
1766001578154572300,6.107572265625,-0.3698786199092865,0.4770090281963348,-0.5619192123413086,4.19744091796875
1766001578173353000,6.12635302734375,-0.13423752784729,0.3867537677288055,-0.3748418986797333,4.2162216796875
1766001578192133400,6.14513330078125,0.0491746142506599,0.2155589163303375,-0.1228601783514022,4.235001953125
1766001578210913800,6.163913818359375,0.3278816640377044,0.1459203213453292,0.1621082425117492,4.253782470703125
1766001578229694500,6.182694580078125,0.6180424690246582,0.190360739827156,0.5034289360046387,4.2725632324218745
1766001578248475000,6.201474853515625,0.8871283531188965,0.3337612450122833,0.8685733675956726,4.291343505859375
1766001578267255300,6.22025537109375,1.1459823846817017,0.2702313065528869,1.2156972885131836,4.3101240234375
1766001578286036000,6.239035888671875,1.37719464302063,0.0287870019674301,1.447825908660889,4.328904541015625
1766001578304816400,6.25781640625,1.3008365631103516,-0.0753654390573501,1.5794672966003418,4.34768505859375
1766001578332987100,6.285987060546875,0.9089667797088624,0.2465602904558181,1.526780128479004,4.375855712890624
1766001578361158000,6.314157958984375,0.6071996092796326,0.820773184299469,1.4913500547409058,4.404026611328125
1766001578379938300,6.332938232421875,0.6733257174491882,0.7299070358276367,1.4594323635101318,4.422806884765625
1766001578398719000,6.351718994140625,0.528092622756958,0.8042798638343811,1.6573524475097656,4.441587646484375
1766001578417499400,6.37049951171875,0.4109592735767364,0.822300374507904,1.763032078742981,4.4603681640624995
1766001578436279800,6.38927978515625,0.3344484567642212,0.7943533062934875,1.684994101524353,4.4791484375
1766001578455060500,6.408060546875,0.2596175372600555,0.6734020709991455,1.44584059715271,4.49792919921875
1766001578473841000,6.4268408203125,0.3547597229480743,0.626518189907074,1.122998595237732,4.51670947265625
1766001578492621300,6.445621337890625,0.4511236250400543,0.4597521126270294,0.912708342075348,4.535489990234375
1766001578511402000,6.464402099609375,0.3683514595031738,-0.0461966507136821,0.4618901312351227,4.5542707519531245
1766001578530182400,6.483182373046875,0.2070831656455993,-0.3824777007102966,-0.1758527010679245,4.573051025390625
1766001578548963000,6.501963134765625,-0.0100792692974209,-0.5924624800682068,-0.7230347990989685,4.591831787109375
1766001578567743500,6.520743408203125,-0.3440696001052856,-0.4486038088798523,-1.2647191286087036,4.610612060546875
1766001578586524000,6.53952392578125,-0.8177952170372009,-1.077183723449707,-2.457890748977661,4.629392578125
1766001578605304600,6.5583046875,-1.5106686353683472,-1.418962478637695,-1.8613049387931824,4.6481733398437495
1766001578624085000,6.5770849609375,-1.7162245512008667,-1.0273982286453247,-2.457890748977661,4.66695361328125
1766001578642865400,6.595865478515625,-2.109163284301758,-2.569526433944702,-1.951789379119873,4.685734130859375
1766001578661646000,6.61464599609375,-1.9126939177513123,-1.4229331612586975,-1.1791981309652328,4.7045146484375
1766001578680426500,6.633426513671875,-2.1502439975738525,-1.8184680938720703,-1.951789379119873,4.723295166015625
1766001578699207000,6.65220703125,-0.0545196831226348,0.4130209386348724,-0.4066068828105926,4.742075683593749
1766001578717987600,6.670987548828125,-0.0154243353754282,0.6388881802558899,-0.0345902182161808,4.760856201171875
1766001578736768000,6.68976806640625,-0.0991128087043762,0.1567631810903549,0.1471420526504516,4.77963671875
1766001578755548400,6.70854833984375,0.329103410243988,-0.1556941568851471,0.2763399481773376,4.7984169921875
1766001578774329000,6.7273291015625,0.2142608165740966,0.9157626628875732,0.241062507033348,4.81719775390625
1766001578793109500,6.746109619140625,-0.2530507445335388,0.8882737755775452,0.0205403286963701,4.835978271484374
1766001578811890200,6.76489013671875,-0.3194822669029236,0.2418260872364044,-0.2019671648740768,4.8547587890625
1766001578830670600,6.783670654296875,-0.2428187429904937,-0.1882227063179016,-0.2841284871101379,4.873539306640625
1766001578849451000,6.802450927734375,-0.2354883700609207,-0.2251800298690796,-0.2063959389925003,4.892319580078125
1766001578868231700,6.821231689453125,-0.1939495652914047,0.0147371124476194,-0.1106428802013397,4.911100341796875
1766001578887012000,6.84001220703125,-0.1870773434638977,0.3836994469165802,0.0155006935819983,4.929880859374999
1766001578905792500,6.85879248046875,-0.1256854236125946,0.6168970465660095,0.2051742076873779,4.9486611328125
1766001578924573200,6.8775732421875,-0.0380263328552246,0.8252019882202148,0.4513527154922485,4.96744189453125
1766001578943353600,6.896353515625,0.0766635313630104,1.1420880556106567,0.7056251764297485,4.98622216796875
1766001578971524400,6.9245244140625,0.0160352010279893,1.6103159189224243,0.8563560843467712,5.0143930664062495
1766001578990305000,6.943304931640625,-0.1298087686300277,0.8163444399833679,1.6297109127044678,5.033173583984374
1766001579009085400,6.96208544921875,0.7822123765945435,1.299233078956604,1.2430334985256195,5.0519541015625
1766001579027865900,6.980865966796875,0.3262018039822579,2.752327680587769,0.1201112866401672,5.070734619140625
1766001579046646500,6.999646484375,1.5164718627929688,0.5723039507865906,3.0788347721099854,5.08951513671875
1766001579065427000,7.018427001953125,-0.3949240744113922,-0.4333322048187256,0.7234929800033569,5.1082956542968745
1766001579084207400,7.037207275390625,0.7626646757125854,-0.2975675165653229,-0.2076176702976226,5.127075927734375
1766001579102988000,7.055988037109375,-0.3605629503726959,-0.4490619599819183,-0.2384663373231887,5.145856689453125
1766001579121768400,7.0747685546875,-0.503505289554596,-0.945542335510254,-1.8105268478393557,5.16463720703125
1766001579140548900,7.093548828125,-0.1795942485332489,-0.7978657484054565,-2.2071309089660645,5.18341748046875
1766001579168719600,7.1217197265625,-0.8251255750656128,-1.6147446632385254,-1.5402191877365112,5.211588378906249
1766001579187500300,7.140500244140625,-0.80389803647995,-0.9391282200813292,-1.5130356550216677,5.230368896484375
1766001579206280700,7.15928076171875,-0.6230821013450623,-0.3053560256958008,-1.4246129989624023,5.2491494140625
1766001579225061400,7.178061279296875,-0.5760455131530762,-0.0064904382452368,-1.2521964311599731,5.267929931640625
1766001579243841800,7.196841796875,-0.3594939112663269,0.0603992566466331,-0.9879974126815796,5.2867104492187496
1766001579262622200,7.215622314453125,-0.2153298407793045,-0.2280816435813903,-0.7175370454788208,5.305490966796874
1766001579281403000,7.23440283203125,-0.2273944169282913,-0.2358701676130294,-0.5145772099494934,5.324271484375
1766001579300183300,7.253183349609375,-0.2145662605762481,0.1301905512809753,-0.3378845751285553,5.343052001953125
1766001579328354000,7.28135400390625,-0.1452330946922302,0.6072759628295898,-0.2034943252801895,5.37122265625
1766001579347134500,7.300134521484375,-0.2246455252170562,0.7659480571746826,-0.2215148359537124,5.390003173828124
1766001579365915100,7.3189150390625,-0.3686569035053253,0.6433169841766357,-0.3123809695243835,5.40878369140625
1766001579384695600,7.337695556640625,-0.3087921440601349,0.192193329334259,-0.4849502742290497,5.427564208984375
1766001579403476200,7.356476318359375,-0.3211621642112732,-0.1222493126988411,-0.6077340841293335,5.446344970703125
1766001579422256600,7.375256591796875,-0.4280634820461273,-0.2749654948711395,-0.5920043587684631,5.465125244140625
1766001579441037000,7.394037109375,-0.4001164436340332,-0.2986365258693695,-0.4388299882411957,5.483905761718749
1766001579459817700,7.412817626953125,-0.1580612659454345,-0.1518762558698654,-0.2115882933139801,5.502686279296875
1766001579478598100,7.43159814453125,0.0154243353754282,0.0634535774588584,-0.0368809625506401,5.521466796875
1766001579497378600,7.450378662109375,0.048105601221323,0.0633008629083633,0.0355065166950225,5.540247314453125
1766001579516159200,7.4691591796875,0.0780379772186279,-0.0898734778165817,0.0045051276683807,5.55902783203125
1766001579534939600,7.487939697265625,0.0702494531869888,-0.1214857324957847,-0.0509308502078056,5.577808349609374
1766001579553720000,7.506719970703125,0.0091629717499017,-0.0578030794858932,-0.0814740881323814,5.596588623046875
1766001579572500700,7.525500732421875,-0.0080939587205648,0.0093920463696122,-0.0784197673201561,5.615369384765625
1766001579591281200,7.54428125,0.0111482823267579,-0.0064904382452368,-0.0558177679777145,5.63414990234375
1766001579610061800,7.563061767578125,0.0355828739702701,0.0003817904798779,-0.029245151206851,5.652930419921875
1766001579628842200,7.58184228515625,0.0464257225394248,0.1408806890249252,-0.0089338971301913,5.671710937499999
1766001579647623000,7.600622802734375,0.0302378069609403,0.2697731554508209,0.0037415467668324,5.690491455078125
1766001579666403300,7.6194033203125,0.0204639695584774,0.187611848115921,-0.025427246466279,5.70927197265625
1766001579685183700,7.638183837890625,0.0085521070286631,0.2697731554508209,-0.0619264170527458,5.728052490234375
1766001579703964400,7.65696435546875,-0.0186313763260841,0.289626270532608,-0.0967457070946693,5.7468330078125
1766001579722744800,7.675744873046875,-0.0267253331840038,0.2838230431079864,-0.1141553521156311,5.765613525390624
1766001579741525200,7.694525146484375,-0.0172569304704666,0.284586638212204,-0.104534238576889,5.784393798828125
1766001579760306000,7.713305908203125,-0.0007635809597559,0.2709949016571045,-0.0747545808553695,5.803174560546875
1766001579779086300,7.73208642578125,0.0516180731356143,0.2555705606937408,-0.0368809625506401,5.821955078125
1766001579797866800,7.75086669921875,0.0951421856880188,0.2428951114416122,-0.0066431546583771,5.8407353515625
1766001579816647400,7.7696474609375,0.1252272725105285,0.224569171667099,0.0150425452739,5.859516113281249
1766001579835427800,7.788427734375,0.1464548259973526,0.1924987584352493,0.0275652725249528,5.87829638671875
1766001579854208500,7.80720849609375,0.1574503928422927,0.1677587330341339,0.044516772031784,5.8970771484375
1766001579882379300,7.835379150390625,0.1898262351751327,0.1605810821056366,0.0631481483578682,5.925247802734375
1766001579901159700,7.85415966796875,0.2002109289169311,0.1338557451963424,0.0628427118062973,5.9440283203124995
1766001579919940000,7.872940185546875,0.211359217762947,0.1283579617738723,0.0619264170527458,5.962808837890624
1766001579938720800,7.891720703125,0.2167042791843414,0.1349247545003891,0.0465020798146724,5.98158935546875
1766001579966891500,7.9198916015625,0.1802051067352295,0.1476002037525177,-0.0209984760731458,6.00976025390625
1766001579985672000,7.938671875,0.1488982886075973,0.3016908466815948,-0.0927750915288925,6.02854052734375
1766001580004452600,7.95745263671875,0.0846047699451446,0.50144362449646,-0.145614892244339,6.047321289062499
1766001580023233000,7.97623291015625,0.0030543238390237,0.6981421113014221,-0.1989128440618515,6.0661015625
1766001580042013400,7.995013427734375,-0.0502436272799968,0.643927812576294,-0.2569449841976166,6.084882080078125
1766001580060794000,8.013794189453124,-0.1041524484753608,0.418824166059494,-0.2760345339775085,6.103662841796875
1766001580079574500,8.032574462890626,-0.1293506175279617,0.2306778132915496,-0.2899316847324371,6.122443115234376
1766001580098355200,8.051355224609376,-0.1640172004699707,0.1165988147258758,-0.3003163933753967,6.141223876953126
1766001580117135600,8.070135498046875,-0.1912006735801696,0.1494327932596206,-0.2871828079223633,6.160004150390626
