time,seconds_elapsed,z,y,x,t
1766001584251198500,12.204198486328124,2.4493303298950195,-0.0640602111816406,-1.65744948387146,10.319890380859373
1766001584269979100,12.222979248046874,2.315414905548096,0.1651763916015625,-2.4281201362609863,10.338671142578123
1766001584288759600,12.241759521484376,2.3066272735595703,-0.1105480194091796,-2.7164101600646973,10.357451416015625
1766001584307540200,12.260540283203126,2.029242992401123,-0.7791118621826172,-1.7286072969436646,10.376232177734375
1766001584326320600,12.279320556640624,1.5619652271270752,-0.9845142364501952,0.373357892036438,10.395012451171873
1766001584345101300,12.298101318359375,0.7316007614135742,-0.3692750930786133,1.250981092453003,10.413793212890624
1766001584363881700,12.3168818359375,-0.4636251926422119,-0.9687223434448242,0.4911537170410156,10.432573730468748
1766001584382662400,12.335662353515623,-2.0904667377471924,-2.6043028831481934,2.0743019580841064,10.451354248046872
1766001584401442800,12.35444287109375,-3.1740269660949707,-4.6598052978515625,2.5722036361694336,10.470134765625
1766001584420223500,12.373223388671876,-2.9770071506500244,-6.351108551025391,2.0946524143218994,10.488915283203125
1766001584439004000,12.39200390625,-3.5125412940979004,-4.511715888977051,1.980976104736328,10.50769580078125
1766001584457784600,12.41078466796875,-5.749234676361084,-1.2095465660095217,2.23237681388855,10.5264765625
1766001584476565000,12.42956494140625,-8.730247497558594,-0.9337387084960938,4.144147872924805,10.545256835937499
1766001584495345700,12.448345703125,-10.41690444946289,0.182194709777832,7.006032943725586,10.564037597656249
1766001584514126000,12.4671259765625,-12.651178359985352,4.397512435913086,7.3424177169799805,10.582817871093749
1766001584532906800,12.48590673828125,-12.496308326721191,8.756101608276367,7.513416290283203,10.601598632812498
1766001584551687200,12.504687255859375,-12.496308326721191,11.997499465942385,8.368276596069336,10.620379150390624
1766001584570467800,12.5234677734375,-12.496308326721191,9.099077224731444,6.330962181091309,10.63915966796875
1766001584589248300,12.542248291015625,-5.2314653396606445,9.099077224731444,1.122665286064148,10.657940185546874
1766001584608028700,12.561028564453125,3.176976203918457,9.099077224731444,-1.428162693977356,10.676720458984374
1766001584626809300,12.579809326171874,6.072267532348633,-2.973231315612793,3.510329008102417,10.695501220703123
1766001584645589800,12.59858984375,8.246234893798828,-10.202486038208008,5.63864803314209,10.71428173828125
1766001584664370400,12.617370361328126,8.967220306396484,-11.007342338562012,-6.311366558074951,10.733062255859375
1766001584683150800,12.63615087890625,7.300782203674316,-9.372400283813477,-5.950583934783936,10.751842773437499
1766001584701931500,12.654931640625,4.878273010253906,-8.52755355834961,-6.035394668579102,10.770623535156249
1766001584720712000,12.6737119140625,0.5775866508483887,-9.153541564941406,-2.444016933441162,10.789403808593748
1766001584739492600,12.69249267578125,-1.0573506355285645,-10.513492584228516,4.510440826416016,10.808184570312498
1766001584758273300,12.711273193359377,-0.7915428280830383,-10.579571723937988,1.873191475868225,10.826965087890626
1766001584777053700,12.7300537109375,-0.5256571173667908,-10.00990867614746,-0.4950616657733917,10.84574560546875
1766001584795834400,12.74883447265625,0.8275426626205444,-9.961413383483888,0.1753429770469665,10.8645263671875
1766001584814614800,12.76761474609375,1.5326346158981323,-10.17222785949707,-0.4310289621353149,10.883306640625
1766001584833395500,12.7863955078125,1.2296509742736816,-9.822233200073242,-1.4881246089935305,10.90208740234375
1766001584852176000,12.80517578125,1.0046801567077637,-9.835758209228516,-1.2141053676605225,10.920867675781249
1766001584880346600,12.8333466796875,1.621145248413086,-9.773670196533203,-0.9379824995994568,10.949038574218749
1766001584899127300,12.852127197265624,1.8634922504425049,-9.803091049194336,-0.5404878854751587,10.967819091796873
1766001584917907700,12.87090771484375,1.487881064414978,-9.548348426818848,-0.4574134349822998,10.986599609374998
1766001584936688400,12.8896884765625,0.8290022015571594,-8.779409408569336,-0.3025722503662109,11.005380371093748
1766001584955468800,12.90846875,1.2929987907409668,-8.668452262878418,0.3462171852588653,11.02416064453125
1766001584974249500,12.92724951171875,1.061000496149063,-7.989667892456055,3.89640474319458,11.04294140625
1766001584993030000,12.94602978515625,3.244645833969116,-8.329060077667236,4.660401344299316,11.0617216796875
1766001585011810600,12.964810546875,-0.9384889602661132,-7.989667892456055,8.80593490600586,11.08050244140625
1766001585030591000,12.983591064453124,-1.9136457443237305,-0.2124509811401367,4.388498306274414,11.099282958984373
1766001585049371600,13.00237158203125,-0.8393003940582275,-1.224651336669922,4.917190074920654,11.118063476562499
1766001585068152000,13.021152099609376,-1.376473069190979,-5.298449993133545,2.1252591609954834,11.136843994140625
1766001585086932700,13.0399326171875,0.4554327726364137,-1.224651336669922,2.8141462802886963,11.155624511718749
1766001585105713200,13.058713134765624,1.957836389541626,-9.372248649597168,0.2159992456436157,11.174405029296873
1766001585124493800,13.077493896484375,1.750165939331055,-9.185742378234863,1.6698306798934937,11.193185791015624
1766001585143274200,13.096274169921877,2.1655068397521973,-1.5793557167053225,5.12320613861084,11.211966064453126
1766001585162055000,13.115054931640625,5.947354793548584,0.4209003448486328,3.504666328430176,11.230746826171874
1766001585180835300,13.13383544921875,4.825753211975098,-3.2816948890686035,-0.1833306550979614,11.24952734375
1766001585199616000,13.152615966796876,4.937056064605713,-8.050627708435059,-2.063560485839844,11.268307861328125
1766001585218396400,13.171396484375,6.345633506774902,-9.248656272888184,-2.128403902053833,11.28708837890625
1766001585237177000,13.190177001953124,4.183781623840332,-5.477816581726074,-1.6045911312103271,11.305868896484373
1766001585255957800,13.208957763671876,1.845844030380249,-3.63828182220459,-1.500605821609497,11.324649658203125
1766001585274738200,13.22773828125,0.3242455720901489,-2.5581860542297363,-0.3930513858795166,11.343430175781249
1766001585293518800,13.246518798828124,-0.7167630195617676,-0.0077724456787109,0.4463306069374084,11.362210693359373
1766001585312299300,13.26529931640625,-1.2177836894989014,3.853860855102539,0.3995534181594848,11.380991210937498
1766001585331080000,13.284079833984377,-1.0439659357070925,6.951075553894043,-0.3062503933906555,11.399771728515626
1766001585349860400,13.3028603515625,-0.9869093894958496,6.540135383605957,-2.154051780700684,11.41855224609375
1766001585368641000,13.32164111328125,-0.2060348987579345,2.6718921661376958,-2.352911949157715,11.4373330078125
1766001585387421400,13.34042138671875,-0.052031397819519,-0.5033473968505859,-0.5395461320877075,11.45611328125
1766001585406202000,13.3592021484375,-0.2953934669494629,-1.973194122314453,0.9895803928375244,11.47489404296875
1766001585424982500,13.377982421875,-0.223709225654602,-2.698903083801269,1.67423415184021,11.49367431640625
1766001585453153300,13.4061533203125,0.2438573837280273,-1.969349384307861,0.8947381973266602,11.521845214843749
1766001585471934000,13.424933837890626,0.0530098676681518,-1.0087823867797852,0.2472778558731079,11.540625732421875
1766001585490714400,13.44371435546875,-1.0636972188949585,0.2843284606933594,0.4341695308685303,11.559406249999999
1766001585509495000,13.4624951171875,-1.8162016868591309,1.170309066772461,0.754280686378479,11.578187011718748
1766001585528275500,13.481275390625,-2.2919507026672363,1.2383050918579102,0.6474756598472595,11.596967285156248
1766001585547056000,13.50005615234375,-1.8396283388137815,0.7934322357177734,0.654181718826294,11.615748046875
1766001585565836500,13.51883642578125,-1.1069555282592771,0.3738031387329101,0.4064964056015014,11.6345283203125
1766001585584617200,13.5376171875,-0.3875964879989624,0.0250186920166015,-0.1124916076660156,11.65330908203125
1766001585603398000,13.55639794921875,0.3029448390007019,-0.4512176513671875,-0.2342493236064911,11.67208984375
1766001585622178300,13.57517822265625,0.9330368638038636,-0.5993528366088867,-0.4984250664710998,11.6908701171875
1766001585640959000,13.593958984375,1.4747545719146729,-0.48077392578125,-0.8328542709350586,11.709650878906249
1766001585659739400,13.612739501953126,1.8343298435211184,-0.2772731781005859,-1.0217652320861816,11.728431396484375
1766001585678520000,13.63152001953125,1.7844743728637695,0.2969837188720703,-1.2888901233673096,11.747211914062499
1766001585697300500,13.650300537109375,1.5621576309204102,0.8019914627075195,-1.1040048599243164,11.765992431640624
1766001585716081200,13.6690810546875,1.2197096347808838,0.7523012161254883,-1.0698137283325195,11.784772949218748
1766001585734861600,13.687861572265623,0.990967094898224,0.3649988174438476,-0.7662062048912048,11.803553466796872
1766001585753642200,13.706642333984377,0.8163366913795471,-0.0512924194335937,-0.3286890983581543,11.822334228515626
1766001585772422700,13.725422607421876,0.417700707912445,-0.2124509811401367,-0.2965836524963379,11.841114501953125
1766001585791203300,13.744203369140624,-0.0624231696128845,-0.1599054336547851,-0.1816947162151336,11.859895263671874
1766001585809983700,13.762983642578124,-0.5182462930679321,-0.0714893341064453,0.4400772452354431,11.878675537109373
1766001585828764400,13.781764404296876,-0.8497509360313416,0.0631380081176757,0.7405480146408081,11.897456298828125
1766001585847545000,13.800545166015626,-0.998496949672699,-0.0454511642456054,0.8961061835289001,11.916237060546875
1766001585875715800,13.8287158203125,-1.0645439624786377,-0.1868743896484375,0.918943166732788,11.944407714843749
1766001585894496300,13.847496337890624,-0.9479788541793824,-0.1604232788085937,0.6012778878211975,11.963188232421873
1766001585913277000,13.86627685546875,-0.8251009583473206,-0.1859846115112304,0.5048787593841553,11.981968749999998
1766001585932057300,13.885057373046877,-0.7230833172798157,-0.2701854705810547,0.3159185647964477,12.000749267578126
1766001585950838000,13.903838134765625,-0.6969702839851379,-0.0878658294677734,0.5283299088478088,12.019530029296874
1766001585969618700,13.92261865234375,-0.5763921141624451,0.4121103286743164,0.4456570744514465,12.038310546875
1766001585988399000,13.941399169921874,-0.3961457014083862,0.4595413208007812,0.2028079628944397,12.057091064453124
1766001586007179800,13.9601796875,-0.0032209157943725,0.1527223587036132,-0.1666601002216339,12.07587158203125
1766001586025960200,13.978960205078126,0.2039288282394409,-0.1936073303222656,-0.2047529518604278,12.094652099609375
1766001586044740900,13.997740966796876,0.4413860738277435,-0.1249189376831054,-0.2191645503044128,12.113432861328125
1766001586063521300,14.016521240234376,0.7752708196640015,-0.0681591033935546,-0.2500568330287933,12.132213134765625
1766001586082302000,14.035302001953124,1.0097122192382812,0.0973625183105468,-0.6489694118499756,12.150993896484373
1766001586101082400,14.054082275390623,1.1318843364715576,0.1940326690673828,-0.7880268692970276,12.169774169921872
1766001586119863000,14.072863037109377,1.2474768161773682,0.2617521286010742,-0.9518905878067015,12.188554931640626
1766001586138643500,14.0916435546875,1.022414207458496,0.2073440551757812,-0.937971830368042,12.20733544921875
1766001586157424000,14.110424072265625,1.0975565910339355,0.0060997009277343,-0.9568305611610411,12.226115966796874
1766001586176204500,14.12920458984375,1.1292316913604736,0.1038446426391601,-1.1333132982254028,12.244896484375
1766001586194985200,14.147985107421874,1.437766432762146,0.3458776473999023,-1.2046685218811035,12.263677001953123
1766001586213765600,14.166765625,1.444450855255127,0.6106052398681641,-1.6306257247924805,12.282457519531249
1766001586232546300,14.18554638671875,0.7580751776695251,0.7045497894287109,-1.5227439403533936,12.301238281249999
1766001586251327000,14.204326904296876,0.8210421800613403,0.3555431365966797,-0.5718404650688171,12.320018798828125
