time,seconds_elapsed,z,y,x,t
1766001297279734500,1.788734619140625,0.1887572109699249,0.6850084662437439,0.8281035423278809,0.0
1766001297298515200,1.80751513671875,0.2446513473987579,1.211421251296997,0.9238566160202026,0.018780517578125044
1766001297317295900,1.8262958984375,0.0745255053043365,1.4362194538116455,0.7578541040420532,0.037561279296874917
1766001297336076500,1.84507666015625,-0.3103193044662475,1.6570470333099363,0.297872930765152,0.05634204101562501
1766001297354857200,1.863857177734375,-0.7118101716041565,1.690033793449402,-0.0984255895018577,0.07512255859375006
1766001297373638000,1.882637939453125,-0.449138343334198,0.9879974126815796,-0.5304597020149231,0.09390332031249993
1766001297392418600,1.90141845703125,-0.6553052067756653,0.3271944522857666,-1.262733817100525,0.11268383789062497
1766001297411199200,1.92019921875,-1.3744457960128784,-0.3853793144226074,-1.7729586362838743,0.13146459960937507
1766001297429980000,1.93897998046875,-1.6187916994094849,-1.115057349205017,-2.0838887691497803,0.15024536132812494
1766001297448760600,1.957760498046875,-1.5406010150909424,-0.8728494048118591,-2.208963394165039,0.16902587890624998
1766001297467541500,1.97654150390625,-1.419955134391785,-0.5432878732681274,-2.090913772583008,0.1878068847656249
1766001297486322200,1.995322265625,-1.5636610984802246,-0.8948405385017395,-1.82793653011322,0.206587646484375
1766001297505102800,2.014102783203125,-1.5902336835861206,-1.058094143867493,-1.3542108535766602,0.22536816406249982
1766001297523883500,2.032883544921875,-0.7750346660614014,-1.0672571659088137,-0.0704785212874412,0.24414892578125014
1766001297542664200,2.051664306640625,0.0148134706541895,0.0640644431114196,-0.3823249936103821,0.2629296875
1766001297561444900,2.07044482421875,-0.1999054998159408,-0.3287216126918793,-0.2769508063793182,0.28171020507812483
1766001297580225500,2.0892255859375,-0.7484620809555054,-0.73204505443573,0.4369973838329315,0.30049096679687515
1766001297599006200,2.108006103515625,-0.0363464541733264,-0.0686459317803382,0.7184533476829529,0.31927148437499997
1766001297617787000,2.126786865234375,0.7939714789390564,-0.5400808453559875,1.044960618019104,0.33805224609374984
1766001297636567600,2.145567626953125,1.0442733764648438,-0.2691622972488403,1.4033855199813845,0.35683300781250016
1766001297655348200,2.16434814453125,1.2637264728546145,0.4580722153186798,1.7329469919204712,0.3756135253906252
1766001297674129000,2.18312890625,1.485164999961853,0.8986584544181824,1.847484111785889,0.3943942871093751
1766001297692909600,2.20190966796875,1.4674499034881592,1.3739112615585327,1.8291581869125368,0.4131750488281254
1766001297711690200,2.220690185546875,1.3248130083084106,1.8914663791656492,1.7876194715499878,0.4319555664062502
1766001297730471200,2.23947119140625,1.3277145624160769,2.284863233566284,1.6593377590179443,0.45073657226562514
1766001297749251800,2.258251953125,1.4164427518844604,2.578078508377075,1.524489402770996,0.469517333984375
1766001297768032500,2.277032470703125,1.3413063287734983,2.6345834732055664,1.311908483505249,0.4882978515625003
1766001297786813200,2.295813232421875,0.847422182559967,1.834045171737671,0.923398494720459,0.5070786132812501
1766001297805593900,2.31459375,0.2730565667152405,0.4765508770942688,0.3563632369041443,0.525859130859375
1766001297824374500,2.33337451171875,-0.2738201320171356,-0.7729730010032654,-0.3328449428081512,0.5446398925781253
1766001297843155200,2.3521552734375,-0.7076868414878845,-1.8676427602767944,-0.7373901605606079,0.5634206542968752
1766001297871326200,2.380326171875,-0.4280634820461273,-2.851898670196533,-1.0205259323120115,0.5915915527343754
1766001297890107000,2.39910693359375,-0.6340776681900024,-2.3053274154663086,-0.9945642352104188,0.6103723144531252
1766001297908887600,2.417887451171875,-1.0795507431030271,-1.081612467765808,-0.0196240302175283,0.62915283203125
1766001297927668200,2.436668212890625,-0.3048215210437774,-0.8384882807731628,0.5642099976539612,0.6479335937500004
1766001297946449200,2.45544921875,-0.0210748352110385,1.037782907485962,-0.5510764122009277,0.6667145996093753
1766001297965229800,2.474229736328125,-1.2078323364257812,-0.6291143894195557,-0.1911243200302124,0.6854951171875001
1766001297984010500,2.493010498046875,-1.4677553176879885,-0.5949059128761292,0.2231947183609008,0.70427587890625
1766001298002791200,2.511791259765625,-0.4477638900279999,0.0793360620737075,0.3983601927757263,0.7230566406250003
1766001298021571800,2.53057177734375,0.6282744407653809,-1.0864993333816528,0.5060251355171204,0.7418371582031251
1766001298040352500,2.5493525390625,0.9170607328414916,-1.1077269315719604,0.6317105293273926,0.760617919921875
1766001298059133200,2.56813330078125,0.975092887878418,-0.1740200966596603,0.7880918979644775,0.7793986816406253
1766001298077913900,2.586913818359375,0.8778126835823059,0.4087449014186859,0.9426407217979432,0.7981791992187501
1766001298096694500,2.605694580078125,0.6575959324836731,0.8943824172019958,0.9728785157203674,0.8169599609375
1766001298115475200,2.62447509765625,0.5784889459609985,1.1506401300430298,0.8511636853218079,0.8357404785156253
1766001298134255900,2.643255859375,0.822834849357605,0.9699769020080566,0.6002510190010071,0.8545212402343751
1766001298153036500,2.66203662109375,1.124754786491394,0.664391815662384,0.4986947476863861,0.873302001953125
1766001298171817500,2.6808173828125,0.9498947262763976,0.3430769443511963,0.6830231547355652,0.8920827636718753
1766001298190598100,2.69959814453125,0.6971494555473328,-0.004657844081521,0.8088613152503967,0.9108635253906252
1766001298209378800,2.71837890625,0.9240856766700744,0.3146717250347137,0.8065705895423889,0.9296442871093751
1766001298228159500,2.737159423828125,1.1398736238479614,0.5222130417823792,0.7430406212806702,0.9484248046875003
1766001298246940200,2.755940185546875,0.8265000581741333,0.1637881249189376,0.516257107257843,0.9672055664062502
1766001298265720800,2.774720947265625,0.3150535225868225,-0.3717875778675079,0.2102138400077819,0.9859863281250001
1766001298284501500,2.79350146484375,-0.2443459182977676,-0.7943533062934875,-0.1731038093566894,1.0047668457031254
1766001298303282200,2.8122822265625,-0.624456524848938,-1.0495420694351196,-0.5614610910415649,1.0235476074218752
1766001298322062800,2.831062744140625,-0.7643445730209351,-1.4455351829528809,-0.8707113862037659,1.042328125
1766001298340843500,2.849843505859375,-1.5193734169006348,-2.1452808380126958,-1.5325833559036257,1.0611088867187504
1766001298359624200,2.868624267578125,-2.5413501262664795,-1.8610758781433103,-0.9530254006385804,1.0798896484375002
1766001298378404900,2.88740478515625,-1.4637846946716309,-1.8913136720657349,-0.9463059306144714,1.098670166015625
1766001298397185800,2.906185791015625,-1.1568251848220823,-0.2905425727367401,-1.5423572063446045,1.117451171875
1766001298415966500,2.924966552734375,-1.903454661369324,-2.4003167152404785,-0.6318632364273071,1.1362319335937503
1766001298434747100,2.9437470703125,-1.3997966051101685,-1.607872486114502,0.0845284163951873,1.1550124511718751
1766001298453527800,2.96252783203125,-0.1165224537253379,-0.1098792999982833,0.4615846872329712,1.173793212890625
1766001298472308500,2.98130859375,0.6209440231323242,-0.0631481483578682,0.7044034600257874,1.1925739746093753
1766001298491089200,3.000089111328125,0.5010618567466736,0.8711695075035095,0.9030871987342834,1.2113544921875001
1766001298509869800,3.018869873046875,0.3801106214523315,1.329928994178772,0.942335307598114,1.23013525390625
1766001298528650500,3.037650390625,0.3961458206176758,1.5884774923324585,0.822300374507904,1.2489157714843753
1766001298547431200,3.05643115234375,0.5659661889076233,1.8517602682113647,0.6492729187011719,1.2676965332031251
1766001298566211800,3.0752119140625,0.7924443483352661,1.7874666452407837,0.4340957701206207,1.286477294921875
1766001298584992800,3.09399267578125,0.9315688014030457,1.4898228645324707,0.261984646320343,1.3052580566406253
1766001298603773400,3.1127734375,0.9509637355804444,1.141629934310913,0.1535561382770538,1.3240388183593752
1766001298622554000,3.13155419921875,1.0204496383666992,0.8432224988937378,0.1450040340423584,1.342819580078125
1766001298641334800,3.150334716796875,1.186299443244934,0.4785361886024475,0.1161406636238098,1.3616000976562503
1766001298660115500,3.169115478515625,1.155145287513733,0.1179732605814933,0.0718529671430587,1.3803808593750002
1766001298678896000,3.187896240234375,0.9366084337234496,-0.2415206581354141,-0.0098501946777105,1.39916162109375
1766001298697676800,3.2066767578125,0.5325213670730591,-0.5727620720863342,-0.2688568532466888,1.4179421386718754
1766001298716457500,3.22545751953125,-0.0807868689298629,-0.8904117941856384,-0.6500364542007446,1.4367229003906252
1766001298735238100,3.244238037109375,-0.9127846956253052,-1.015333652496338,-1.2297471761703491,1.45550341796875
1766001298754018800,3.263018798828125,-1.5992439985275269,-0.8642973303794861,-1.6121485233306885,1.4742841796875004
1766001298772799700,3.2817998046875,-1.974467635154724,-1.2998439073562622,-1.4663045406341553,1.4930651855468753
1766001298791580400,3.300580322265625,-1.3165663480758667,-2.066326379776001,-0.2548069655895233,1.511845703125
1766001298810361000,3.319361083984375,-0.3220784664154053,-1.806250810623169,-0.8003092408180237,1.53062646484375
1766001298829141800,3.338141845703125,-0.7220421433448792,-0.5991820096969604,-1.1072688102722168,1.5494072265625003
1766001298847922400,3.35692236328125,-1.1733185052871704,-2.591517448425293,-0.6269763112068176,1.5681877441406251
1766001298866703000,3.375703125,-0.94439697265625,-0.8294780254364014,-0.2056323587894439,1.586968505859375
1766001298885483800,3.39448388671875,-0.1655443608760833,-0.1282052397727966,0.0301614478230476,1.6057492675781253
1766001298904264400,3.413264404296875,0.1579085439443588,0.1902080178260803,0.381866842508316,1.6245297851562501
1766001298923045000,3.432045166015625,0.2987128794193268,0.8884264826774597,0.7179951667785645,1.643310546875
1766001298941825800,3.45082568359375,0.7432697415351868,1.4249184131622314,0.9400445222854614,1.6620910644531253
1766001298960606500,3.4696064453125,1.059086799621582,1.7024037837982178,1.0232748985290527,1.6808718261718751
1766001298979387400,3.488387451171875,1.12292218208313,1.8682535886764529,1.05091655254364,1.69965283203125
1766001298998168000,3.50716796875,1.1534653902053833,1.7931171655654907,0.9933425188064576,1.7184333496093753
1766001299016948700,3.52594873046875,1.237612009048462,1.4954733848571775,0.882317841053009,1.7372141113281252
1766001299035729400,3.5447294921875,1.3029745817184448,0.9811251759529114,0.799240231513977,1.755994873046875
1766001299054510000,3.563510009765625,1.3697115182876587,0.5935314893722534,0.7974076271057129,1.7747753906250003
1766001299073290800,3.582290771484375,1.361006736755371,0.3296379148960113,0.765489935874939,1.7935561523437502
1766001299092071400,3.601071533203125,0.9986112117767334,-0.0654388889670372,0.4507418572902679,1.8123369140625
1766001299110852000,3.61985205078125,0.0833830460906028,-0.6143009066581726,-0.3018435537815094,1.8311174316406253
1766001299129632800,3.6386328125,-1.3179407119750977,-0.7775545120239258,-1.40155291557312,1.8498981933593752
1766001299148413400,3.657413330078125,-2.4190244674682617,-0.5773435831069946,-1.8251875638961792,1.8686787109375
1766001299167194400,3.6761943359375,-2.456439971923828,-1.152778148651123,-1.0306051969528198,1.887459716796875
1766001299185975000,3.69497509765625,-0.6453786492347717,-2.679787397384644,-0.8398627042770386,1.9062404785156253
1766001299204755700,3.713755615234375,-0.9466876983642578,-0.9434043169021606,-1.2402845621109009,1.92502099609375
1766001299223536400,3.732536376953125,-1.0977239608764648,-2.9930083751678467,-0.6207149624824524,1.9438017578125
1766001299242317000,3.751317138671875,-0.5674933791160583,-1.979889154434204,0.051083568483591,1.9625825195312503
1766001299261097700,3.77009765625,0.2028071135282516,-0.6410261988639832,0.4806742370128631,1.9813630371093751
