time,seconds_elapsed,z,y,x,t
1766001299279878400,3.78887841796875,0.5697841048240662,-0.3433823585510254,0.8238275051116943,2.000143798828125
1766001299298659000,3.8076591796875,0.5186241865158081,0.858646810054779,1.0616066455841064,2.0189245605468753
1766001299317439700,3.826439697265625,0.5500837564468384,1.418351650238037,1.0524436235427856,2.037705078125
1766001299336220400,3.845220458984375,0.5115992426872253,1.704541802406311,0.9214131832122804,2.05648583984375
1766001299355001300,3.86400146484375,0.3975202441215515,1.997909665107727,0.7583122849464417,2.0752668457031254
1766001299373782000,3.882781982421875,0.3623955249786377,2.1127521991729736,0.640415370464325,2.09404736328125
1766001299392562700,3.901562744140625,0.3570504784584045,1.7607413530349731,0.51564621925354,2.112828125
1766001299411343400,3.92034326171875,0.0591011680662632,1.0066287517547607,0.1547778695821762,2.1316086425781253
1766001299430124000,3.9391240234375,-0.3688096106052398,-0.18990258872509,-0.4869355857372284,2.150389404296875
1766001299448904700,3.95790478515625,-0.8866702318191528,-0.8781944513320923,-1.099632978439331,2.169170166015625
1766001299467685400,3.976685302734375,-1.6009238958358765,-1.3937643766403198,-1.801822066307068,2.1879506835937503
1766001299486466000,3.995466064453125,-2.4133739471435547,-2.144669771194458,-2.2862377166748047,2.2067314453125
1766001299514637000,4.023636962890625,-1.3703224658966064,-3.0896778106689453,-1.1579705476760864,2.23490234375
1766001299533417700,4.042417724609375,-0.5490147471427917,-2.150625705718994,-1.724394917488098,2.25368310546875
1766001299552198700,4.06119873046875,-1.375972867012024,-1.9676718711853027,-1.592448115348816,2.2724641113281248
1766001299570979300,4.079979248046875,-1.336724877357483,-2.407341718673706,-0.7086794972419739,2.2912446289062505
1766001299589760000,4.098760009765625,-0.5360338687896729,-0.8177188634872437,-0.0261908266693353,2.3100253906250003
1766001299608540700,4.117540771484375,0.21319180727005,-0.751592755317688,0.475176453590393,2.32880615234375
1766001299627321300,4.1363212890625,0.6356047987937927,0.358806699514389,0.8861356973648071,2.347586669921875
1766001299646102000,4.15510205078125,0.8113811612129211,1.339244723320007,1.0897064208984375,2.366367431640625
1766001299664882700,4.173882568359375,0.7802270650863647,1.8088469505310056,1.184237718582153,2.3851479492187506
1766001299683663400,4.192663330078125,0.6847794055938721,2.140546560287476,1.3068687915802002,2.4039287109375005
1766001299702444000,4.211444091796875,0.8035926222801208,2.359541654586792,1.2208895683288574,2.4227094726562504
1766001299721225000,4.230224853515625,1.0042617321014404,2.477438449859619,0.9589813351631165,2.4414902343750002
1766001299740005600,4.249005615234375,1.046411395072937,2.513784885406494,0.7673225402832031,2.46027099609375
1766001299758786300,4.267786376953125,1.1432334184646606,2.543564558029175,0.6547706723213196,2.4790517578125
1766001299777567000,4.28656689453125,1.369558811187744,2.52004623413086,0.4857138693332672,2.497832275390625
1766001299796347600,4.30534765625,1.5008947849273682,2.4725515842437744,0.2683987021446228,2.5166130371093756
1766001299815128300,4.32412841796875,1.416595458984375,2.1101560592651367,0.0631481483578682,2.5353937988281254
1766001299843299300,4.35229931640625,0.9743293523788452,0.8678097724914551,-0.3536143600940704,2.563564697265625
1766001299862080300,4.371080322265625,0.6082686185836792,0.1410334110260009,-0.816038966178894,2.582345703125
1766001299880861000,4.38986083984375,-0.1085812151432037,-0.2445749789476394,-1.3100758790969849,2.601126220703125
1766001299899641600,4.4086416015625,-0.8883501291275024,-0.2882518172264099,-1.6936990022659302,2.619906982421875
1766001299918422300,4.42742236328125,-1.4790563583374023,-0.2519053518772125,-2.0116541385650635,2.6386877441406256
1766001299937203000,4.446202880859375,-2.0413572788238525,-0.4066068828105926,-2.07915472984314,2.6574682617187504
1766001299955983600,4.464983642578125,-2.0555598735809326,-0.8265764117240906,-0.9334777593612672,2.6762490234375003
1766001299974764300,4.483764404296875,-0.7615956664085388,-1.820453405380249,-0.8306997418403625,2.69502978515625
1766001299993545000,4.502544921875,-0.9332486391067504,0.1240819096565246,-1.7392083406448364,2.713810302734375
1766001300012325600,4.52132568359375,-1.6161954402923584,-2.7605743408203125,-0.921260416507721,2.732591064453125
1766001300031106600,4.5401064453125,-1.3523019552230835,-2.0596070289611816,-0.1382845193147659,2.7513718261718756
1766001300049887200,4.55888720703125,-0.4103484153747558,-1.0858885049819946,0.2682459950447082,2.7701525878906255
1766001300068668000,4.57766796875,0.3112356066703796,-0.6715694665908813,0.7312815189361572,2.7889333496093753
1766001300096839000,4.6058388671875,0.5169443488121033,0.857730507850647,1.4464514255523682,2.817104248046875
1766001300115619600,4.62461962890625,0.7638863921165466,1.5415936708450315,1.6788854598999023,2.835885009765625
1766001300134400300,4.643400146484375,1.0720677375793457,2.1124467849731445,1.7641011476516724,2.85466552734375
1766001300153181000,4.662180908203125,1.3124430179595947,2.4620141983032227,1.7656283378601074,2.8734462890625005
1766001300171961600,4.680961669921875,1.4677553176879885,2.6686391830444336,1.6462042331695557,2.8922270507812504
1766001300190742300,4.6997421875,1.5406010150909424,2.8248677253723145,1.4055235385894775,2.9110075683593752
1766001300209523200,4.718523193359375,1.6102395057678225,2.9361979961395264,1.1196388006210327,2.92978857421875
1766001300228304000,4.737303955078125,1.6110031604766846,2.717661142349243,0.789466381072998,2.9485693359375
1766001300247084500,4.75608447265625,1.0509928464889526,1.885815978050232,0.2369391769170761,2.967349853515625
1766001300265865200,4.774865234375,0.0949894711375236,0.3267363011837005,-0.5544361472129822,2.9861306152343756
1766001300284646000,4.79364599609375,-0.6499601006507874,-1.09214985370636,-1.542815327644348,3.0049113769531255
1766001300303426600,4.812426513671875,-1.3912445306777954,-1.5580869913101196,-2.385045289993286,3.0236918945312503
1766001300322207200,4.831207275390625,-2.190866470336914,-1.912999391555786,-2.71720290184021,3.04247265625
1766001300340988000,4.84998779296875,-2.311359643936157,-1.6452878713607788,-1.48371422290802,3.061253173828125
1766001300359768800,4.868768798828125,-0.8281798958778381,-2.622060775756836,-1.4867684841156006,3.0800341796875
1766001300378549500,4.887549560546875,-1.5228859186172483,-0.2578612864017486,-2.2184317111968994,3.09881494140625
1766001300397330200,4.906330078125,-1.9923354387283323,-2.628016710281372,-1.0431280136108398,3.1175954589843755
1766001300416110800,4.92511083984375,-1.28083074092865,-0.8400154113769531,-0.0999527499079704,3.1363762207031254
1766001300434891500,4.9438916015625,-0.2020435184240341,-0.92782723903656,0.4237110912799835,3.1551569824218753
1766001300453672200,4.962672119140625,0.2768744528293609,-0.9521090984344482,0.7493020296096802,3.1739375
1766001300472452900,4.981452880859375,0.3807214796543121,-0.3555996716022491,0.8358920812606812,3.19271826171875
1766001300491233500,5.000233642578125,0.4329504072666168,0.0151952616870403,0.8445969223976135,3.2114990234375
1766001300510014200,5.01901416015625,0.430048793554306,0.1824194937944412,0.9501237869262696,3.2302795410156255
1766001300528795100,5.037795166015625,0.6545416116714478,0.9492074847221376,1.1613303422927856,3.2490605468750005
1766001300547575800,5.056575927734375,0.9944878816604614,1.586034059524536,1.3419935703277588,3.2678413085937503
1766001300566356500,5.0753564453125,1.1044435501098633,1.8079307079315183,1.3218350410461426,3.286621826171875
1766001300585137200,5.09413720703125,1.0574069023132324,1.949345827102661,1.1850013732910156,3.305402587890625
1766001300603917800,5.112917724609375,1.109330415725708,2.0903029441833496,1.0906226634979248,3.32418310546875
1766001300632088800,5.1410888671875,1.4213296175003052,2.110919713973999,0.9829577803611756,3.3523542480468755
1766001300650869500,5.159869384765625,1.4246894121170044,1.9246058464050293,0.8108466267585754,3.3711347656250004
1766001300669650200,5.178650146484375,1.195920467376709,1.5411354303359983,0.5237401723861694,3.3899155273437502
1766001300688431000,5.19743115234375,0.8318451046943665,1.0958150625228882,0.1585957705974578,3.408696533203125
1766001300707211800,5.216211669921875,0.4778489768505096,0.5535198450088501,-0.1659261435270309,3.42747705078125
1766001300725992400,5.234992431640625,0.2515235841274261,0.0594829581677913,-0.4449386298656463,3.4462578125
1766001300744773000,5.253773193359375,-0.1601992845535278,-0.1712712198495865,-0.7812197208404541,3.4650385742187506
1766001300763553800,5.2725537109375,-0.7535017132759094,-0.3090212345123291,-1.173853039741516,3.4838190917968754
1766001300782334500,5.29133447265625,-1.3845250606536863,-0.4527271687984466,-1.5900046825408936,3.5025998535156253
1766001300801115100,5.310115234375,-1.85260021686554,-0.6248382925987244,-1.999284029006958,3.521380615234375
1766001300819895800,5.328895751953125,-2.405738115310669,-0.7405971884727478,-2.435441493988037,3.5401611328125
1766001300838676700,5.3476767578125,-3.0442445278167725,-1.0825287103652954,-1.740888237953186,3.558942138671875
1766001300857457400,5.36645751953125,-1.7774637937545776,-1.9314780235290527,-0.7398335933685303,3.577722900390625
1766001300876238000,5.385238037109375,-0.8947641849517822,0.1277471035718917,-2.292041063308716,3.5965034179687505
1766001300895018800,5.404018798828125,-2.5280637741088867,-2.4311654567718506,-1.2821288108825684,3.6152841796875004
1766001300913799400,5.42279931640625,-2.4740023612976074,-1.82488214969635,-0.1802814751863479,3.634064697265625
1766001300932580000,5.441580078125,-1.2333359718322754,-1.6541454792022705,0.1333975940942764,3.652845458984375
1766001300951360800,5.46036083984375,-0.3185659945011139,-1.829005479812622,0.5191587209701538,3.671626220703125
1766001300979532000,5.488531982421875,-0.1400407552719116,-1.1836268901824951,0.9438624382019044,3.6997973632812498
1766001300998312700,5.507312744140625,-0.0299323741346597,-0.8572723865509033,1.2937352657318115,3.7185781250000005
1766001301017093400,5.52609326171875,0.2713766694068908,-0.5738310813903809,1.610774040222168,3.7373586425781253
1766001301035874000,5.5448740234375,0.708450436592102,-0.372245728969574,1.7502039670944214,3.756139404296875
1766001301054654700,5.56365478515625,1.0593922138214111,-0.1436295807361602,1.859090566635132,3.774920166015625
1766001301073435400,5.582435302734375,1.2067633867263794,-0.1262199282646179,1.879860043525696,3.79370068359375
1766001301092216000,5.601216064453125,1.2276854515075684,-0.2651916742324829,1.806556224822998,3.8124814453124998
1766001301110996700,5.619996826171875,1.1714859008789062,-0.414700835943222,1.6941571235656738,3.8312622070312505
1766001301129777700,5.638777587890625,1.1859939098358154,-0.6863829493522644,1.463861107826233,3.8500429687500004
1766001301148558300,5.657558349609375,1.311373949050903,-1.0272455215454102,1.26731538772583,3.8688237304687503
1766001301167339000,5.676339111328125,1.2872447967529297,-1.5281546115875244,1.13307785987854,3.8876044921875
1766001301186119700,5.69511962890625,1.0709986686706543,-1.9177336692810056,0.9724203944206238,3.906385009765625
1766001301204900400,5.713900390625,0.7695369124412537,-1.906432628631592,0.7294489145278931,3.925165771484375
1766001301223681000,5.732680908203125,0.4468475878238678,-1.434844970703125,0.5613083839416504,3.9439462890625006
1766001301242461700,5.751461669921875,0.269085943698883,-0.7685442566871643,0.5243510603904724,3.9627270507812504
1766001301261242400,5.770242431640625,0.152716189622879,-0.3326922357082367,0.5507709383964539,3.9815078125000003
1766001301280023000,5.78902294921875,0.0532979518175125,-0.2926805913448334,0.553214430809021,4.000288330078125
1766001301298804000,5.807803955078125,0.0389426313340663,-0.6973785161972046,0.4655553102493286,4.0190693359375
