time,seconds_elapsed,z,y,x,t
1766000629185494300,5.285494384765625,1.8957452774047847,2.2689242362976074,-1.9151577949523928,3.061246582031249
1766000629204274700,5.304274658203125,2.238764762878418,2.3364057540893555,-1.7917914390563965,3.0800268554687498
1766000629223055400,5.323055419921875,2.31847620010376,3.0364646911621094,-1.249314785003662,3.0988076171874996
1766000629241836000,5.3418359375,2.33872652053833,3.4304723739624023,-0.7745994329452515,3.1175881347656245
1766000629260616700,5.36061669921875,2.231510162353516,3.4309606552124023,-0.5443083047866821,3.1363688964843743
1766000629279397400,5.3793974609375,2.2110695838928223,3.635487079620361,-0.4849880933761596,3.155149658203124
1766000629298178000,5.398177978515625,2.4023728370666504,3.620824813842773,-0.8994807600975037,3.17393017578125
1766000629316958700,5.416958740234375,2.417855262756348,3.4551777839660645,-1.175381779670715,3.1927109375
1766000629335739400,5.435739501953125,2.388029098510742,3.6084938049316406,-1.169415831565857,3.2114916992187497
1766000629354520000,5.45452001953125,2.4029111862182617,3.5097403526306152,-1.4103673696517944,3.2302722167968745
1766000629382691000,5.482691162109375,2.216574192047119,3.0953521728515625,-1.4886869192123413,3.2584433593749993
1766000629401471700,5.5014716796875,2.166589736938477,2.960992813110352,-1.6281652450561523,3.277223876953124
1766000629420252400,5.52025244140625,1.9931888580322263,2.7542953491210938,-1.604633331298828,3.296004638671875
1766000629439033000,5.539033203125,1.7568345069885254,2.407930850982666,-1.209488034248352,3.3147854003906247
1766000629467204000,5.5672041015625,1.3918581008911133,1.563093185424805,-1.0569376945495603,3.3429562988281245
1766000629485984800,5.58598486328125,1.107520580291748,0.9944949150085448,-1.5417362451553345,3.3617370605468744
1766000629504765400,5.604765380859375,1.033179759979248,0.7982025146484375,-1.6168363094329834,3.380517578124999
1766000629523546000,5.623546142578125,0.2568497657775879,0.6543526649475098,-0.7136185169219971,3.399298339843749
1766000629542326800,5.642326904296875,-0.0823464393615722,0.6573634147644043,0.6590179204940796,3.4180791015625
1766000629561107500,5.661107421875,0.0005545616149902,0.2418961524963379,0.9909301400184632,3.4368596191406247
1766000629579888000,5.67988818359375,-0.2860264778137207,-0.5097861289978027,0.9836038947105408,3.4556403808593745
1766000629598668800,5.698668701171875,-0.4758591651916504,-0.2297754287719726,1.1784480810165403,3.4744208984374993
1766000629617449500,5.717449462890625,-1.876558303833008,-0.9961395263671876,1.3697577714920044,3.493201660156249
1766000629636230100,5.736230224609375,-9.295244216918944,-5.903813362121582,7.607869148254394,3.511982421874999
1766000629655010800,5.7550107421875,-5.585901260375976,-2.03669548034668,5.730862140655518,3.530762939453125
1766000629673791500,5.77379150390625,-12.427850723266602,7.072030067443848,4.631522178649902,3.5495437011718747
1766000629692572200,5.792572265625,2.260232448577881,-8.934090614318848,6.830202102661133,3.5683244628906245
1766000629711352800,5.811352783203125,0.1343574523925781,-7.816545009613037,-0.5827050805091858,3.5871049804687494
1766000629730133500,5.830133544921875,-0.3874297142028808,-3.685233592987061,0.0205479878932237,3.6058857421874992
1766000629748914200,5.8489140625,-0.7240877151489258,-1.037240505218506,0.3650676310062408,3.624666259765624
1766000629767694800,5.86769482421875,-0.4835758209228515,-2.113946914672852,0.3988725543022156,3.643447021484375
1766000629786475500,5.8864755859375,-1.6134181022644043,-2.6032094955444336,2.067016124725342,3.6622277832031247
1766000629805256200,5.905256103515625,-2.3512539863586426,-0.4760570526123047,4.687865734100342,3.6810083007812495
1766000629824036900,5.924036865234375,-1.0635790824890137,0.768247127532959,4.425323486328125,3.6997890624999994
1766000629842817500,5.942817626953125,-1.4324817657470703,-0.8730196952819824,-0.6801897287368774,3.7185698242187493
1766000629861598200,5.96159814453125,-1.0557737350463867,-0.7766547203063965,-3.024841547012329,3.737350341796874
1766000629880379000,5.98037890625,-0.944176197052002,-0.6109905242919922,-2.5714633464813232,3.756131103515625
1766000629899159600,5.99915966796875,-1.4618821144104004,-0.3484487533569336,-0.2564184665679931,3.7749118652343747
1766000629917940200,6.017940185546875,-0.8287978172302246,0.6153926849365234,1.2103625535964966,3.7936923828124995
1766000629936721000,6.036720947265625,-0.0714473724365234,0.8812432289123535,0.5297625064849854,3.8124731445312494
1766000629955501800,6.055501708984375,0.5668578147888184,0.7473912239074707,-0.7541199326515198,3.8312539062499993
1766000629974282500,6.074282470703125,1.2115988731384275,1.3682537078857422,-0.9698569774627686,3.850034667968749
1766000629993063200,6.093063232421875,1.8420162200927732,1.554234504699707,-1.3410475254058838,3.8688154296875
1766000630011843800,6.11184375,2.0989155769348145,1.3156700134277344,-1.6209049224853516,3.8875959472656247
1766000630030624500,6.13062451171875,2.310244083404541,1.8935141563415527,-1.392761468887329,3.9063767089843746
1766000630049405200,6.1494052734375,2.3564724922180176,2.777757167816162,-0.9621996283531188,3.9251574707031245
1766000630068185900,6.168185791015625,2.138876438140869,3.39968490600586,-0.3240818381309509,3.9439379882812493
1766000630086966500,6.186966552734375,1.88776969909668,3.1014561653137207,-0.4109404385089874,3.962718749999999
1766000630105747200,6.205747314453125,2.0670151710510254,2.730021476745605,-1.22171151638031,3.98149951171875
1766000630124527900,6.22452783203125,2.0390567779541016,3.145615577697754,-1.4909679889678955,4.000280029296874
1766000630143308500,6.24330859375,2.2395782470703125,3.6908559799194336,-1.188755989074707,4.019060791015624
1766000630162089200,6.262089111328125,2.126896858215332,3.5463662147521973,-0.9488910436630248,4.03784130859375
1766000630180870000,6.280869873046875,2.202432155609131,3.635369300842285,-0.7669748067855835,4.0566220703125
1766000630199650600,6.299650634765625,2.3260321617126465,3.323948860168457,-1.495785355567932,4.07540283203125
1766000630218431200,6.31843115234375,1.9900450706481931,3.0251355171203613,-1.5170023441314695,4.094183349609375
1766000630237212000,6.3372119140625,1.8316106796264648,2.91375732421875,-0.8843838572502136,4.112964111328125
1766000630255992600,6.35599267578125,1.249642848968506,2.2698659896850586,-0.5175960659980774,4.131744873046875
1766000630274773200,6.374773193359375,1.0762662887573242,2.052523136138916,-0.4527961611747741,4.150525390624999
1766000630293554000,6.393553955078125,0.9073305130004884,1.8080434799194336,-1.20403790473938,4.169306152343749
1766000630312334600,6.41233447265625,0.6789588928222656,1.63352632522583,-1.432374358177185,4.188086669921875
1766000630331115300,6.431115234375,0.1725401878356933,1.5179266929626465,-0.9553862810134888,4.2068674316406245
1766000630349896000,6.44989599609375,-0.1403079032897949,1.328291416168213,-0.1516036391258239,4.225648193359374
1766000630368676600,6.468676513671875,-0.0932645797729492,1.0113239288330078,0.2301326245069503,4.2444287109375
1766000630387457300,6.487457275390625,-0.3080825805664062,0.5657563209533691,0.2249520421028137,4.26320947265625
1766000630406238000,6.506238037109375,-0.2315649986267089,-0.1319432258605957,0.1026096194982528,4.281990234375
1766000630425018600,6.5250185546875,-0.8417801856994629,-0.5479836463928223,0.4655648171901703,4.300770751953124
1766000630443799300,6.54379931640625,3.524945020675659,-0.2692317962646484,1.1001110076904297,4.319551513671874
1766000630462580000,6.562580078125,-12.062877655029297,-9.66339874267578,7.427043437957764,4.338332275390625
1766000630481360600,6.581360595703125,-12.12350845336914,0.1286697387695312,3.101918458938598,4.357112792968749
1766000630500141300,6.600141357421875,-13.179412841796877,1.090428352355957,4.780731797218323,4.375893554687499
1766000630518922000,6.618921875,1.5848140716552734,-8.274846076965332,6.459545135498047,4.394674072265625
1766000630537702700,6.63770263671875,-2.5128984451293945,-8.426448822021484,2.051247358322144,4.413454833984375
1766000630556483300,6.6564833984375,-0.4614038467407226,-6.522233963012695,-0.5912562608718872,4.4322355957031245
1766000630584654300,6.684654296875,-0.6210289001464844,-3.091768264770508,-1.0275437831878662,4.460406494140624
1766000630603435300,6.703435302734375,-1.1110076904296875,-2.731790542602539,0.7994083762168884,4.4791875
1766000630622216000,6.7222158203125,-1.829792022705078,-2.5611300468444824,2.061909437179565,4.497968017578124
1766000630640996600,6.74099658203125,-0.8543071746826172,-0.7335066795349121,3.63770604133606,4.516748779296874
1766000630669167600,6.769167724609375,0.2966327667236328,0.7666449546813965,-1.310226321220398,4.544919921875
1766000630687948300,6.7879482421875,-0.7246861457824707,0.1222062110900878,-2.394040822982788,4.563700439453125
1766000630706729000,6.80672900390625,-1.4349427223205566,0.3213858604431152,-0.5237978100776672,4.582481201171875
1766000630725509600,6.825509521484375,-1.6897778511047363,1.074934005737305,0.4634168148040771,4.601261718749999
1766000630744290300,6.844290283203125,-1.2286782264709473,1.9288387298583984,0.93814218044281,4.620042480468749
1766000630763071000,6.863071044921875,-0.5365180969238281,2.30033540725708,0.7611374855041504,4.638823242187499
1766000630781851600,6.8818515625,0.6254768371582031,2.2605128288269043,-0.7533528804779053,4.657603759765625
1766000630800632300,6.90063232421875,1.3340811729431152,1.985386848449707,-1.810521364212036,4.6763845214843744
1766000630819413000,6.9194130859375,2.0178351402282715,2.4597439765930176,-1.5393671989440918,4.695165283203124
1766000630838193700,6.938193603515625,2.431199073791504,3.0666890144348145,-1.3639482259750366,4.71394580078125
1766000630856974300,6.956974365234375,2.556521415710449,3.437873363494873,-1.3189494609832764,4.7327265625
1766000630875755000,6.975755126953125,2.590663433074951,3.293872833251953,-1.6489537954330444,4.75150732421875
1766000630894536000,6.994535888671875,2.437752723693848,3.3202366828918457,-1.8435983657836916,4.7702880859375
1766000630913316600,7.013316650390625,2.384427070617676,3.8209924697875977,-1.909048557281494,4.7890688476562495
1766000630932097300,7.03209716796875,2.200233459472656,3.913384437561035,-1.6246404647827148,4.807849365234375
1766000630950878000,7.0508779296875,2.332956314086914,4.038344860076904,-1.3449044227600098,4.826630126953125
1766000630969658600,7.06965869140625,2.897796630859375,3.992362499237061,-1.7443002462387085,4.845410888671875
1766000630988439300,7.088439208984375,3.204664707183838,3.902524948120117,-1.9092988967895508,4.864191406249999
1766000631007220000,7.107219970703125,3.0234079360961914,4.024676322937012,-1.4960931539535522,4.882972167968749
1766000631026000600,7.126000732421875,2.8070850372314453,3.5724172592163086,-1.3075177669525146,4.901752929687499
1766000631044781300,7.14478125,2.582113265991211,3.044431686401367,-1.107381820678711,4.920533447265624
1766000631072952300,7.172952392578125,2.1413064002990723,1.9520587921142576,-1.1383335590362549,4.94870458984375
1766000631091733000,7.19173291015625,1.6768951416015625,1.7243571281433103,-0.9625178575515748,4.967485107421874
1766000631110513700,7.210513671875,1.2324366569519043,1.4754304885864258,-0.5875858068466187,4.986265869140624
1766000631129294300,7.22929443359375,0.4768943786621094,0.9954113960266112,0.1244047433137893,5.005046630859374
1766000631148075000,7.248074951171875,-0.0649194717407226,0.8851947784423828,0.8199021220207214,5.0238271484374994
1766000631166855700,7.266855712890625,-0.6432385444641113,0.0718832015991211,1.115220308303833,5.042607910156249
1766000631185636400,7.28563623046875,-1.2071523666381836,-0.6936445236206055,1.6071056127548218,5.061388427734375
1766000631204417000,7.3044169921875,-2.0069985389709477,-0.7501411437988281,1.9165953397750852,5.080169189453125
