time,seconds_elapsed,z,y,x,t
1766000633270294000,9.3702939453125,2.3386244773864746,2.756111621856689,-1.4329018592834473,7.146046142578125
1766000633289074700,9.38907470703125,2.514263153076172,2.183086395263672,-2.1674959659576416,7.164826904296875
1766000633307855400,9.40785546875,2.6767325401306152,2.281798839569092,-1.8893016576766968,7.183607666015625
1766000633326636300,9.42663623046875,2.9529027938842773,2.601074695587158,-1.6988391876220703,7.202388427734375
1766000633345417000,9.4454169921875,2.849203109741211,2.6989240646362305,-1.2881258726119995,7.221169189453125
1766000633364197600,9.46419775390625,2.243567943572998,2.759729385375977,-0.8266041874885559,7.239949951171875
1766000633382978300,9.482978271484376,1.7493276596069336,3.0804147720336914,-0.6657002568244934,7.2587304687500005
1766000633401759000,9.501759033203124,1.8321666717529297,3.463078022003174,-0.9355693459510804,7.277511230468749
1766000633420539600,9.52053955078125,1.662037372589111,3.329150676727295,-0.8189518451690674,7.296291748046874
1766000633439320300,9.5393203125,1.7519712448120115,3.161290168762207,-0.6476292610168457,7.315072509765624
1766000633458101200,9.558101318359377,1.609382152557373,2.465334415435791,-1.270683765411377,7.333853515625002
1766000633476882000,9.5768818359375,1.6300864219665527,1.975858211517334,-1.728981375694275,7.352634033203126
1766000633495662600,9.59566259765625,1.3382463455200195,1.5680584907531738,-1.5127296447753906,7.371414794921876
1766000633514443300,9.614443359375,1.2235088348388672,1.3565196990966797,-0.6581616401672363,7.390195556640625
1766000633533224000,9.633223876953124,0.8922033309936523,0.8881039619445801,-0.4179307818412781,7.408976074218749
1766000633552004600,9.652004638671874,0.5360593795776367,-0.0178809165954589,-1.0194473266601562,7.427756835937499
1766000633570785300,9.670785400390624,0.2051062583923339,-0.5778064727783203,-1.3519248962402344,7.446537597656249
1766000633589566000,9.68956591796875,-0.5170469284057617,-1.0283246040344238,-0.7755509614944458,7.465318115234375
1766000633608347000,9.708346923828126,-1.4018449783325195,-0.7019219398498535,1.0321003198623655,7.484099121093751
1766000633627127600,9.72712744140625,-2.1843395233154297,-0.808344841003418,3.0656609535217285,7.502879638671875
1766000633645908200,9.745908203125,-1.4018449783325195,-0.7551333904266357,2.048880636692047,7.5216604003906244
1766000633664689000,9.76468896484375,1.8491017818450928,2.7387495040893555,1.8436513543128967,7.540441162109374
1766000633683469600,9.783469482421877,3.41335391998291,-1.4321918487548828,-2.511457622051239,7.559221679687502
1766000633702250200,9.802250244140623,1.8491017818450928,-0.9515142440795898,0.6216417551040649,7.578002441406248
1766000633721031000,9.821031005859377,0.5732059478759766,-1.082531452178955,-5.644556999206543,7.5967832031250015
1766000633739811800,9.839811767578125,0.2666745185852051,-0.9515142440795898,0.0095390751957893,7.61556396484375
1766000633758592500,9.858592529296876,0.8237900733947754,-1.082531452178955,1.28999662399292,7.634344726562501
1766000633777373200,9.877373291015624,0.0709228515625,-1.6163363456726074,0.8969146013259888,7.653125488281249
1766000633796153900,9.89615380859375,-2.0792784690856934,-0.6086292266845703,2.731750965118408,7.671906005859375
1766000633824324900,9.924324951171876,-1.135688304901123,0.0816702842712402,3.289867401123047,7.700077148437501
1766000633843105800,9.943105712890626,-0.5086555480957031,-0.6314234733581543,-1.5953940153121948,7.718857910156251
1766000633861886500,9.961886474609376,-0.1622285842895507,-0.8323154449462891,-4.768689155578613,7.7376386718750005
1766000633880667100,9.980667236328124,-0.595435619354248,-0.8486776351928711,-2.755574941635132,7.756419433593749
1766000633899447800,9.99944775390625,-0.9518089294433594,-0.1679372787475586,-0.8617346882820129,7.775199951171874
1766000633918228500,10.018228515625,-0.4327816963195801,0.4394850730895996,-0.5624051094055176,7.793980712890624
1766000633937009400,10.037009521484377,0.100222110748291,0.5626311302185059,-0.6688844561576843,7.812761718750002
1766000633955790000,10.0557900390625,0.3337297439575195,0.5542092323303223,-0.626249372959137,7.831542236328126
1766000633974570800,10.07457080078125,0.6180357933044434,0.3805503845214844,-1.0765565633773804,7.850322998046876
1766000633993351400,10.093351318359376,0.91961669921875,0.0740804672241211,-1.6235482692718506,7.869103515625001
1766000634012132000,10.112132080078124,1.0634417533874512,-0.1215028762817382,-1.810066819190979,7.887884277343749
1766000634030913000,10.1309130859375,1.1277003288269043,-0.2866668701171875,-1.7601228952407837,7.906665283203125
1766000634049693700,10.149693603515624,1.1673574447631836,-0.2607283592224121,-1.423348903656006,7.925445800781249
1766000634068474400,10.168474365234376,1.17030930519104,-0.2577857971191406,-1.0890377759933472,7.944226562500001
1766000634087255000,10.187255126953126,1.1336109638214111,-0.0621623992919921,-0.7042715549468994,7.963007324218751
1766000634106035700,10.20603564453125,0.9712295532226562,0.1500053405761718,-0.6078605651855469,7.981787841796875
1766000634124816600,10.224816650390624,0.8420064449310303,0.486328125,-0.5240585803985596,8.000568847656249
1766000634143597300,10.243597412109375,0.8587124347686768,0.461979866027832,-0.0214141048491001,8.019349609375
1766000634162378000,10.2623779296875,0.8423969745635986,1.1139535903930664,0.7633471488952637,8.038130126953124
1766000634181159000,10.281158935546877,0.9962291717529296,1.5312557220458984,1.2157355546951294,8.056911132812502
1766000634199939600,10.299939697265623,0.95617413520813,1.6533422470092771,1.3975521326065063,8.075691894531248
1766000634218720300,10.31872021484375,0.7716563940048218,1.6593255996704102,1.472294807434082,8.094472412109376
1766000634237501000,10.3375009765625,0.6969199180603027,1.5171585083007812,0.9332003593444824,8.113253173828125
1766000634256281600,10.356281494140624,0.7376471161842346,1.4516534805297852,0.1622953414916992,8.13203369140625
1766000634275062500,10.3750625,0.4487923085689544,1.204019546508789,0.4002900719642639,8.150814697265625
1766000634293843200,10.39384326171875,0.0532144308090209,1.043828010559082,1.278131127357483,8.169595458984375
1766000634322014200,10.42201416015625,-0.4713711142539978,0.1085157394409179,2.280104637145996,8.197766357421875
1766000634340795000,10.440794921875,-1.165910243988037,-0.4484767913818359,3.046145439147949,8.216547119140625
1766000634359575800,10.459575927734376,-1.724980711936951,-0.2292261123657226,4.119513034820557,8.235328125
1766000634378356500,10.4783564453125,-1.6249786615371704,-0.2889957427978515,4.421797275543213,8.254108642578124
1766000634397137200,10.49713720703125,-0.6889121532440186,-0.5677480697631836,2.749256134033203,8.272889404296874
1766000634415917800,10.515917724609375,0.358691930770874,-0.2267799377441406,-0.2268872261047363,8.291669921875
1766000634434698800,10.53469873046875,1.208709716796875,0.6185646057128906,-1.3265199661254885,8.310450927734374
1766000634453479400,10.5534794921875,1.267601490020752,1.3920831680297852,-2.067662715911865,8.329231689453126
1766000634472260000,10.572260009765625,0.4012497067451477,1.0171384811401367,-1.924342513084412,8.34801220703125
1766000634491040800,10.591040771484376,-0.4250921308994293,1.2259149551391602,-0.5829774141311646,8.366792968750001
1766000634509821700,10.60982177734375,-0.4673856496810913,1.17108154296875,-0.7144277095794678,8.385573974609375
1766000634528602400,10.628602294921874,-0.1397945880889892,0.7925138473510742,-0.4448823928833008,8.4043544921875
1766000634547383000,10.647383056640624,0.0647051334381103,-0.2437276840209961,-0.1683540344238281,8.42313525390625
1766000634566163700,10.666163818359376,0.1674963235855102,0.0486507415771484,-0.4760398864746094,8.441916015625
1766000634584944600,10.684944580078126,0.0494953393936157,0.4964237213134765,-0.4138112068176269,8.46069677734375
1766000634603725300,10.703725341796876,-0.0937379598617553,-0.0852241516113281,-0.2413747310638427,8.4794775390625
1766000634622506000,10.722506103515624,-0.0038142204284667,-0.6497373580932617,-0.1160311698913574,8.498258300781249
1766000634641286700,10.74128662109375,0.4291871786117553,-1.155268669128418,-0.5367794036865234,8.517038818359374
1766000634660067300,10.7600673828125,1.0454201698303225,-0.2666177749633789,-1.409745454788208,8.535819580078124
1766000634678848300,10.77884814453125,1.152531623840332,-0.0101833343505859,-1.408381462097168,8.554600341796874
1766000634697629000,10.79762890625,0.8891671895980835,-0.0857152938842773,-0.6333532333374023,8.573381103515626
1766000634716409600,10.81640966796875,0.9099656343460084,-0.1905221939086914,-0.0374248027801513,8.592161865234376
1766000634735190300,10.835190185546876,1.116626501083374,-0.2557039260864258,-0.3059499263763428,8.610942382812501
1766000634753971200,10.85397119140625,0.9306967258453368,0.6974029541015625,-0.190666913986206,8.629723388671875
1766000634772752000,10.872751953125,0.5347387790679932,0.7607851028442383,0.2971051931381225,8.648504150390625
1766000634791532500,10.891532470703124,0.409165620803833,0.3875484466552734,0.2519363164901733,8.66728466796875
1766000634810313200,10.910313232421874,0.4250483512878418,0.0003900527954101,0.3583064079284668,8.686065429687499
1766000634829094100,10.92909423828125,0.472059965133667,-0.2256135940551757,0.2818409204483032,8.704846435546875
1766000634847874800,10.947874755859376,0.3553729057312011,0.0586452484130859,-0.1673593521118164,8.723626953125
1766000634866655500,10.966655517578126,0.1367559432983398,0.0645008087158203,-0.5982531309127808,8.74240771484375
1766000634885436200,10.985436279296875,0.0762202739715576,-0.0051116943359375,-0.5046043395996094,8.7611884765625
1766000634904217000,11.004217041015623,0.1323487758636474,0.0044441223144531,-0.2515325546264648,8.779969238281248
1766000634922997800,11.022997802734375,0.3697912693023681,0.1663436889648437,-0.3326921463012695,8.79875
1766000634941778400,11.0417783203125,0.549086332321167,0.0466957092285156,-0.4363340139389038,8.817530517578126
1766000634960559400,11.060559326171877,0.6609339714050293,-0.0385427474975585,-0.454747200012207,8.836311523437502
1766000634979340000,11.079340087890625,0.6614124774932861,-0.0157337188720703,-0.1008780002593994,8.85509228515625
1766000634998120700,11.09812060546875,0.790461540222168,-0.0488862991333007,0.0061670541763305,8.873872802734375
1766000635016901400,11.1169013671875,0.8365273475646973,-0.0708904266357421,-0.0060902833938598,8.892653564453125
1766000635035682000,11.13568212890625,0.8358047008514404,-0.0283412933349609,0.171316385269165,8.911434326171875
1766000635054463000,11.154462890625,0.7593133449554443,-0.0108928680419921,0.2513121366500854,8.930215087890625
1766000635073243600,11.17324365234375,0.6020176410675049,0.0527706146240234,-0.0045340061187744,8.948995849609375
1766000635092024300,11.1920244140625,0.3805584907531738,-0.011819839477539,-0.232231855392456,8.967776611328125
1766000635110805200,11.21080517578125,0.1915066242218017,0.0338020324707031,-0.2111799716949463,8.986557373046875
1766000635129586000,11.2295859375,0.00917649269104,0.0401210784912109,0.0449452400207519,9.005338134765625
1766000635148366600,11.24836669921875,0.0024316310882568,0.0842924118041992,0.0253326892852783,9.024118896484374
1766000635167147300,11.267147216796875,-0.1110473871231079,0.0753087997436523,0.1817786693572998,9.0428994140625
1766000635185928200,11.28592822265625,-0.0743318796157836,0.0323772430419921,0.3047629594802856,9.061680419921874
1766000635204708900,11.304708984375,-0.2474452257156372,0.0751791000366211,0.5172191262245178,9.080461181640626
1766000635223489500,11.323489501953125,-0.2591394186019897,0.0653715133666992,0.3177940845489502,9.09924169921875
1766000635242270500,11.3422705078125,-0.2379236221313476,0.0126571655273437,0.1310464143753051,9.118022705078126
1766000635261051100,11.361051025390625,-0.3068399429321289,0.1472015380859375,0.0834561586380004,9.13680322265625
