time,seconds_elapsed,z,y,x,t
1766000614591953000,3.913952880859375,0.7382301092147827,-0.4174497127532959,0.7772490978240967,2.018908447265625
1766000614620124000,3.9421240234375,0.8219185471534729,-0.6219366788864136,1.0246492624282837,2.0470795898437504
1766000614638904300,3.960904296875,0.8727730512619019,-0.3833940029144287,1.1689660549163818,2.06585986328125
1766000614657685000,3.97968505859375,0.8825469017028809,-0.1633299738168716,1.2480731010437012,2.0846406250000005
1766000614676465400,3.99846533203125,0.8466585874557495,-0.0662024691700935,1.293124437332153,2.1034208984375002
1766000614695246000,4.01724609375,0.7707586288452148,-0.0187077336013317,1.2912918329238892,2.12220166015625
1766000614714026500,4.036026611328125,0.6414080262184143,0.0449749194085598,1.2389100790023804,2.140982177734375
1766000614732807200,4.05480712890625,0.5030471682548523,0.1523344069719314,1.1419353485107422,2.1597626953125006
1766000614751587600,4.073587646484375,0.4031707644462585,0.2658025324344635,1.0150282382965088,2.1785432128906255
1766000614770368300,4.0923681640625,0.3431532979011535,0.270689457654953,0.8879683017730713,2.1973237304687503
1766000614789148700,4.111148681640625,0.3277289569377899,0.2601520419120788,0.7772490978240967,2.216104248046875
1766000614807929300,4.129929443359375,0.2373209595680236,0.2404516488313675,0.6564505696296692,2.234885009765625
1766000614826709800,4.148709716796875,0.1058323234319686,0.2054796367883682,0.5474112033843994,2.2536652832031256
1766000614845490400,4.167490478515625,0.0152716198936104,0.2378554791212082,0.391182541847229,2.2724460449218755
1766000614864270800,4.186270751953125,-0.0606283284723758,0.2997055351734161,0.1986074149608612,2.2912263183593753
1766000614883051500,4.205051513671875,-0.1094975098967552,0.2048687785863876,0.0202348958700895,2.310007080078125
1766000614901832200,4.223832275390625,-0.0980437994003295,0.1121700480580329,-0.1410334110260009,2.328787841796875
1766000614920612600,4.242612548828125,-0.1262962967157364,0.0029779658652842,-0.3174206018447876,2.3475681152343757
1766000614939393300,4.261393310546875,-0.2066250145435333,-0.1566104590892791,-0.4841867089271545,2.3663488769531256
1766000614958173700,4.280173583984375,-0.3011563420295715,-0.238313615322113,-0.6668352484703064,2.3851291503906253
1766000614976954400,4.298954345703125,-0.3857611119747162,-0.1526398360729217,-0.8705586791038513,2.403909912109375
1766000614995734800,4.31773486328125,-0.4563159942626953,-0.0901789143681526,-1.0634392499923706,2.4226904296875
1766000615014515500,4.336515380859375,-0.5099193453788757,-0.0611628368496894,-1.2292890548706057,2.441470947265625
1766000615033296100,4.355296142578125,-0.6218603253364563,-0.0840702652931213,-1.3765074014663696,2.4602517089843756
1766000615052076500,4.37407666015625,-0.7689260244369507,-0.1589011996984481,-1.462639331817627,2.4790322265625004
1766000615070857200,4.392857177734375,-0.8584177494049072,-0.0990364551544189,-1.501276612281799,2.4978127441406253
1766000615089637600,4.4116376953125,-0.9311106204986572,0.1074358448386192,-1.5263220071792605,2.51659326171875
1766000615108418300,4.430418212890625,-0.9753983616828918,0.3375791609287262,-1.5443425178527832,2.535373779296875
1766000615127198700,4.44919873046875,-1.030528903007507,0.5205331444740295,-1.5779401063919067,2.5541542968750006
1766000615145979400,4.4679794921875,-1.1050543785095217,0.6094139814376831,-1.6297109127044678,2.5729350585937505
1766000615164759800,4.486759765625,-1.1452187299728394,0.60406893491745,-1.630321741104126,2.5917153320312503
1766000615183540500,4.50554052734375,-1.12765634059906,0.6614902019500732,-1.6518547534942627,2.61049609375
1766000615202321200,4.524321044921875,-1.2409718036651611,0.7488438487052917,-1.458057880401611,2.629276611328125
1766000615221101600,4.5431015625,-1.1902700662612915,0.4026362597942352,0.4376082420349121,2.6480571289062507
1766000615239882200,4.56188232421875,0.2988655865192413,1.4246129989624023,0.6712640523910522,2.6668378906250005
1766000615258662700,4.58066259765625,0.4245510101318359,1.3493239879608154,0.3391063213348388,2.6856181640625003
1766000615277443300,4.599443359375,0.2189950197935104,1.1602612733840942,0.4270708262920379,2.70439892578125
1766000615296224000,4.61822412109375,0.5707004070281982,-0.2007454335689544,0.3699549734592438,2.7231796875
1766000615315004400,4.63700439453125,0.4340194165706634,-0.8155808448791504,0.4014145135879516,2.7419599609375
1766000615333785000,4.65578515625,0.3167333900928497,-1.2202787399291992,0.3853793144226074,2.7607407226562506
1766000615352565500,4.6745654296875,0.5021308660507202,-1.4655410051345823,0.4267654120922088,2.7795209960937504
1766000615371346200,4.69334619140625,0.6351466774940491,-0.8778890371322632,0.4615846872329712,2.7983017578125002
1766000615390126600,4.712126708984375,0.6893609166145325,-0.1553887277841568,0.5581013560295105,2.817082275390625
1766000615408907300,4.7309072265625,0.6692023873329163,0.3954585790634155,0.6344594359397888,2.83586279296875
1766000615427688000,4.74968798828125,0.6195695996284485,0.2911534309387207,0.7034871578216553,2.8546435546875006
1766000615446468400,4.76846826171875,0.5621483325958252,-0.0998000353574752,0.882317841053009,2.8734238281250004
1766000615465249000,4.7872490234375,0.6117810606956482,-0.0213039088994264,1.0243438482284546,2.8922045898437503
1766000615484029400,4.806029541015625,0.6539307236671448,0.176005408167839,1.117958903312683,2.910985107421875
1766000615502810000,4.82481005859375,0.7082977294921875,0.2694677114486694,1.12055504322052,2.929765625
1766000615521590800,4.8435908203125,0.711962878704071,0.1434768587350845,1.1239148378372192,2.9485463867187507
1766000615540371200,4.86237109375,0.6753110289573669,-0.0096974782645702,1.0889428853988647,2.9673266601562505
1766000615559151900,4.88115185546875,0.6078104376792908,-0.1598175019025802,1.046029567718506,2.9861074218750003
1766000615577932500,4.8999326171875,0.5306887626647949,-0.1851683855056762,0.9600503444671632,3.00488818359375
1766000615596713000,4.918712890625,0.4700604379177093,-0.1662315726280212,0.8730021119117737,3.02366845703125
1766000615615493600,4.93749365234375,0.4341721534729004,-0.0608574040234088,0.7453314065933228,3.04244921875
1766000615634274000,4.956274169921875,0.370642215013504,-0.0591775253415107,0.6288089156150818,3.0612297363281256
1766000615653054700,4.9750546875,0.3260490894317627,-0.1260672211647033,0.5248091816902161,3.0800102539062504
1766000615671835100,4.993835205078125,0.2725984156131744,-0.2190713882446289,0.4174497127532959,3.098790771484375
1766000615690615800,5.01261572265625,0.1863137632608413,-0.2209039777517318,0.2989419400691986,3.1175712890625
1766000615709396500,5.031396484375,0.0809395834803581,-0.227318063378334,0.1850156635046005,3.13635205078125
1766000615728177000,5.050177001953125,0.0071776611730456,-0.2048687785863876,0.0707839578390121,3.1551325683593756
1766000615746957600,5.06895751953125,-0.0847574844956398,-0.1165988147258758,-0.0620791316032409,3.1739130859375004
1766000615775128300,5.09712841796875,-0.2469420880079269,-0.0416151620447635,-0.2610683441162109,3.202083984375
1766000615793909000,5.115908935546875,-0.3732383847236633,-0.0139735322445631,-0.4113410711288452,3.220864501953125
1766000615812689400,5.134689453125,-0.5296197533607483,0.0700203776359558,-0.5862011313438416,3.23964501953125
1766000615831470000,5.153469970703125,-0.6632464528083801,0.185321107506752,-0.7830522656440735,3.2584255371093755
1766000615850250500,5.17225048828125,-0.7652608752250671,0.2392299175262451,-0.9928843379020692,3.2772060546875004
1766000615869031200,5.19103125,-0.8491020202636719,0.2502254843711853,-1.2381465435028076,3.2959868164062502
1766000615887811800,5.209811767578125,-0.9256128668785096,0.1874591261148452,-1.4539345502853394,3.314767333984375
1766000615906592300,5.22859228515625,-1.0169371366500854,0.1847102344036102,-1.654298186302185,3.3335478515625
1766000615925373000,5.247373046875,-1.142469882965088,0.1572213172912597,-1.832823395729065,3.3523286132812506
1766000615953543700,5.275543701171875,-1.1820234060287476,0.1505018174648285,-2.0617449283599854,3.3804992675781254
1766000615972324400,5.294324462890625,-1.2029454708099363,0.2326631247997284,-2.1909430027008057,3.3992800292968752
1766000615991104800,5.313104736328125,-1.237612009048462,0.3847684562206268,-2.228663682937622,3.418060302734375
1766000616009885400,5.331885498046875,-1.2858703136444092,0.8065705895423889,-2.2526402473449707,3.436841064453125
1766000616038056200,5.36005615234375,-1.177594542503357,0.8613957166671753,0.7496074438095093,3.4650117187500005
1766000616056836900,5.3788369140625,1.0584759712219238,1.8433607816696167,0.331165075302124,3.4837924804687503
1766000616075617500,5.397617431640625,0.6079631447792053,1.349782109260559,0.8394045829772949,3.502572998046875
1766000616094398000,5.41639794921875,0.6139190793037415,0.9962440729141236,0.5745946764945984,3.521353515625
1766000616113178600,5.4351787109375,0.5503891706466675,-0.6004037261009216,0.6023890376091003,3.54013427734375
1766000616131959000,5.453958984375,0.6181951761245728,-2.115806579589844,0.908890426158905,3.5589145507812505
1766000616150739700,5.47273974609375,0.7469348907470703,-1.2824342250823977,0.9084323048591614,3.5776953125000004
1766000616169520400,5.491520263671875,0.8356630206108093,-1.2824342250823977,0.9386700987815856,3.596475830078125
1766000616188300800,5.51030078125,1.0216712951660156,-1.2824342250823977,0.9058361053466796,3.61525634765625
1766000616207081500,5.52908154296875,0.9450078010559082,0.0852919965982437,0.8589522242546082,3.634037109375
1766000616225862000,5.54786181640625,0.7707586288452148,0.7196750640869141,0.8907172083854675,3.6528173828125006
1766000616244642600,5.566642578125,0.8124501705169678,0.2109774202108383,0.9944115281105042,3.6715981445312504
1766000616263423200,5.58542333984375,0.8176425099372864,-0.6054433584213257,1.1811834573745728,3.6903789062500003
1766000616282203600,5.60420361328125,0.7971785664558411,-0.8639918565750122,1.4163663387298584,3.7091591796875
1766000616300984300,5.622984375,0.8148936033248901,-0.5009855031967163,1.500207543373108,3.72793994140625
1766000616319765000,5.641764892578125,0.7394518256187439,0.0032833982259035,1.4339287281036377,3.7467204589843757
1766000616338545400,5.66054541015625,0.624456524848938,0.3924042582511902,1.3112976551055908,3.7655009765625005
1766000616357326000,5.679326171875,0.5108356475830078,0.441884309053421,1.1816415786743164,3.7842817382812504
1766000616376106500,5.6981064453125,0.3805687427520752,0.2279289215803146,1.084208607673645,3.80306201171875
1766000616394887200,5.71688720703125,0.2545779049396515,0.0350483655929565,0.9774600267410278,3.8218427734375
1766000616413667800,5.735667724609375,0.1904370933771133,-0.0568867810070514,0.8649081587791443,3.840623291015625
1766000616432448300,5.7544482421875,0.1724165827035904,-0.0881936028599739,0.7573959827423096,3.8594038085937505
1766000616451229000,5.77322900390625,0.1728747338056564,-0.0730746984481811,0.6659189462661743,3.8781845703125004
1766000616470009300,5.79200927734375,0.1585194170475006,0.0035888305865228,0.572151243686676,3.89696484375
1766000616488790000,5.8107900390625,0.1030834317207336,-0.0264962594956159,0.4635699987411499,3.91574560546875
1766000616516960800,5.838960693359375,0.0410806573927402,-0.1440877318382263,0.2821431756019592,3.9439162597656257
1766000616535741400,5.857741455078125,-0.0016798780998215,-0.073380134999752,0.1439350098371505,3.9626970214843755
1766000616554522000,5.876522216796875,-0.0444404110312461,0.0816268026828765,0.007559451740235,3.9814777832031254
1766000616573302500,5.895302490234375,-0.1026252806186676,0.1338557451963424,-0.1417969912290573,4.000258056640625
1766000616592083200,5.914083251953125,-0.1673769503831863,0.0171805713325738,-0.2696204483509063,4.019038818359375
1766000616610863900,5.93286376953125,-0.2623664140701294,-0.143782302737236,-0.4092030525207519,4.0378193359375
