time,seconds_elapsed,z,y,x,t
1766001801587409000,6.711408935546875,-7.079441070556641,-8.64913272857666,1.5471136569976809,5.080340087890625
1766001801606190300,6.7301904296875,-10.106446266174316,-5.212066650390625,0.6479607820510864,5.09912158203125
1766001801624971500,6.748971435546875,-13.592740058898926,0.9108333587646484,-0.8039404153823853,5.117902587890625
1766001801643753000,6.7677529296875,-14.70538330078125,16.159893035888672,0.9695958495140076,5.13668408203125
1766001801662534100,6.7865341796875,-18.716358184814453,19.79916763305664,1.6738966703414917,5.15546533203125
1766001801681315600,6.805315673828125,-18.520336151123047,6.416630744934082,1.5703973770141602,5.174246826171875
1766001801700096800,6.8240966796875,-14.817672729492188,10.000936508178713,2.115118741989136,5.19302783203125
1766001801718878200,6.842878173828125,-7.431280612945557,13.174375534057615,-0.1723451912403106,5.211809326171875
1766001801737659400,6.861659423828125,-1.856938362121582,6.221046447753906,-0.4846153855323791,5.230590576171875
1766001801756440800,6.88044091796875,4.990702629089356,-7.525235176086426,2.317610740661621,5.2493720703125
1766001801775222000,6.899221923828125,11.810585975646973,-12.782772064208984,2.2893967628479004,5.268153076171875
1766001801794003500,6.91800341796875,11.29560661315918,-11.036577224731444,3.543548107147217,5.2869345703125
1766001801812784600,6.93678466796875,9.911386489868164,-8.069656372070312,-0.1270288825035095,5.3057158203125
1766001801831566000,6.955566162109375,7.633302211761475,-11.023694038391112,-2.7931389808654785,5.324497314453125
1766001801850347300,6.97434716796875,2.5013978481292725,-9.582221031188965,0.9909331798553468,5.3432783203125
1766001801869128700,6.993128662109375,0.2205924987792968,-10.043923377990724,2.9078850746154785,5.362059814453125
1766001801887910000,7.011909912109375,0.0673614740371704,-9.432037353515623,0.7505964040756226,5.380841064453125
1766001801906691300,7.03069140625,0.6321755647659302,-9.345654487609863,-0.6019625663757324,5.39962255859375
1766001801925472500,7.049472412109375,1.92793869972229,-9.50291633605957,0.7660115361213684,5.418403564453125
1766001801944254000,7.06825390625,2.6635336875915527,-9.73334789276123,1.3183643817901611,5.43718505859375
1766001801963035100,7.08703515625,3.156317710876465,-9.914085388183594,0.9285913705825806,5.45596630859375
1766001801981816600,7.105816650390625,3.5715603828430176,-9.82851219177246,0.3230351209640503,5.474747802734375
1766001802009988600,7.133988525390625,3.862795114517212,-10.009138107299805,1.062792181968689,5.502919677734375
1766001802028769800,7.152769775390625,3.022633552551269,-9.817623138427734,2.2318227291107178,5.521700927734375
1766001802047551200,7.17155126953125,4.296618938446045,-14.79865837097168,1.8776347637176516,5.540482421875
1766001802066332400,7.19033251953125,-15.981643676757812,7.629214286804199,-1.636677861213684,5.559263671875
1766001802094504400,7.21850439453125,-8.512816429138184,27.067604064941406,5.066516876220703,5.587435546875
1766001802113286000,7.237285888671875,5.968534469604492,2.9913558959960938,-2.873781204223633,5.606217041015625
1766001802132067000,7.256067138671875,0.7770297527313232,46.395599365234375,-0.6508428454399109,5.624998291015625
1766001802150848300,7.27484814453125,-28.120132446289062,9.454465866088867,-3.483252048492432,5.643779296875
1766001802169629700,7.293629638671875,-25.476869583129883,-8.712915420532227,2.2869198322296143,5.662560791015625
1766001802188411000,7.312410888671875,-16.38680648803711,-24.95414352416992,0.3157713413238525,5.681342041015625
1766001802207192300,7.3311923828125,-6.513612270355225,-11.037890434265137,-1.037683606147766,5.70012353515625
1766001802225973500,7.349973388671875,0.4720373153686523,3.876653671264648,1.8495408296585083,5.718904541015625
1766001802244755000,7.3687548828125,0.5110702514648438,13.631797790527344,5.907742977142334,5.7376860351562495
1766001802263536000,7.3875361328125,1.703620672225952,2.9021806716918945,7.095913887023926,5.75646728515625
1766001802282317600,7.406317626953125,2.586416244506836,-6.491950511932373,1.1984878778457642,5.7752487792968745
1766001802301098800,7.4250986328125,2.4576752185821533,-9.280710220336914,-2.4187123775482178,5.79402978515625
1766001802319880200,7.443880126953125,3.6354241371154794,-5.804868221282959,-2.266270875930786,5.812811279296875
1766001802338661400,7.462661376953125,3.3062257766723637,-0.5366554260253906,-2.355379343032837,5.831592529296875
1766001802357442800,7.48144287109375,3.0760231018066406,2.8833799362182617,-3.877973794937134,5.8503740234375
1766001802376224000,7.50022412109375,2.408455371856689,3.343038558959961,-3.8635268211364746,5.8691552734375
1766001802395005400,7.51900537109375,2.772622346878052,2.798367500305176,-2.22772216796875,5.8879365234375
1766001802413786600,7.53778662109375,3.199148178100586,1.6149091720581057,0.2470772117376327,5.9067177734375
1766001802432568000,7.556568115234375,3.9192090034484863,0.1029806137084961,2.025280714035034,5.925499267578125
1766001802451349200,7.575349365234375,4.1966071128845215,-1.2962493896484375,2.6202783584594727,5.944280517578125
1766001802470130700,7.594130615234375,3.888980388641357,-1.6249918937683103,1.1544246673583984,5.963061767578125
1766001802488912000,7.612911865234375,4.099526882171631,-0.068084716796875,-0.7177209854125977,5.981843017578125
1766001802507693300,7.631693359375,4.447437286376953,0.1889114379882812,-0.9176250696182252,6.00062451171875
1766001802526474500,7.650474609375,4.710055351257324,-0.3564844131469726,-1.0831413269042969,6.01940576171875
1766001802545256000,7.669255859375,5.396327018737793,-0.0187158584594726,-0.8206570148468018,6.03818701171875
1766001802564037000,7.688037109375,6.226997375488281,-0.0697641372680664,-0.8298893570899963,6.05696826171875
1766001802582818600,7.706818603515625,6.25287675857544,0.4648027420043945,-0.7113393545150757,6.075749755859375
1766001802601599700,7.725599853515625,4.949085712432861,0.914433479309082,-1.6358970403671265,6.094531005859375
1766001802620381200,7.744381103515625,3.371830940246582,0.9370746612548828,-2.4470410346984863,6.113312255859375
1766001802639162400,7.763162353515625,3.3153531551361084,0.0983142852783203,-1.842766642570496,6.132093505859375
1766001802657943800,7.78194384765625,0.5229711532592773,0.0238819122314453,-0.3221887648105621,6.150875
1766001802676725000,7.80072509765625,-3.5179569721221924,-0.4290227890014648,0.8568363785743713,6.16965625
1766001802695506400,7.81950634765625,-3.5114455223083496,-4.824690818786621,1.5169689655303955,6.1884375
1766001802723678200,7.84767822265625,-6.028401374816895,-12.911654472351074,2.6988425254821777,6.216609375
1766001802742459600,7.866459716796875,-6.019589900970459,-10.317130088806152,-0.3350597321987152,6.235390869140625
1766001802761240800,7.88524072265625,-9.07831573486328,-1.3447518348693848,0.7650327086448669,6.254171875
1766001802780022300,7.904022216796875,-12.079877853393556,7.746478080749512,1.644515872001648,6.272953369140625
1766001802798803700,7.9228037109375,-16.585878372192383,18.253263473510746,1.802996277809143,6.29173486328125
1766001802817585000,7.9415849609375,-18.222545623779297,7.9897918701171875,0.0273618400096893,6.31051611328125
1766001802836366000,7.960365966796875,-18.685203552246094,8.212594985961914,2.7429962158203125,6.329297119140625
1766001802855147500,7.9791474609375,-14.02886962890625,13.20915699005127,2.7512691020965576,6.34807861328125
1766001802873929000,7.997928955078125,-5.8562211990356445,15.86349868774414,-0.6301005482673645,6.366860107421875
1766001802892710100,8.016710205078125,-0.862175703048706,7.031210899353027,0.1180561780929565,6.385641357421875
1766001802911491600,8.03549169921875,8.333514213562012,-9.496681213378906,1.086869239807129,6.404422851562501
1766001802930272800,8.054272705078125,15.477109909057615,-16.100141525268555,-0.273219347000122,6.423203857421875
1766001802958444800,8.08244482421875,10.719053268432615,-6.435373783111572,1.7942399978637695,6.451375976562501
1766001802977226000,8.10122607421875,7.343044281005859,-11.104935646057127,-3.378814935684204,6.470157226562501
1766001802996007400,8.12000732421875,0.7460712194442749,-8.127102851867676,-0.2056846618652343,6.488938476562502
1766001803014788900,8.138788818359375,-1.4380576610565186,-8.846999168395996,2.4195117950439453,6.507719970703126
1766001803033570000,8.157570068359375,-0.8803340196609497,-9.473560333251951,3.0587966442108154,6.526501220703126
1766001803052351500,8.1763515625,0.9433480501174928,-9.951419830322266,2.8063793182373047,6.545282714843752
1766001803071132700,8.195132568359375,2.7230710983276367,-9.872729301452637,1.6510508060455322,6.564063720703126
1766001803089914000,8.2139140625,3.5645480155944824,-9.726247787475586,0.1692143678665161,6.5828452148437515
1766001803108695300,8.2326953125,3.536048412322998,-9.794052124023438,0.2735098600387573,6.6016264648437515
1766001803127476700,8.251476806640625,3.259803295135498,-9.53972625732422,1.2844023704528809,6.620407958984376
1766001803146258000,8.2702578125,3.346637725830078,-9.60041618347168,1.5109739303588867,6.639188964843751
1766001803165039400,8.289039306640625,3.5314202308654785,-9.644225120544434,1.0937323570251465,6.657970458984376
1766001803183820800,8.30782080078125,3.0813465118408203,-9.84274959564209,0.5882962942123413,6.6767519531250015
1766001803202602000,8.32660205078125,2.387692451477051,-13.755638122558594,-2.0193111896514893,6.695533203125001
1766001803221383400,8.345383544921875,-16.210948944091797,7.251466751098633,-1.426888942718506,6.714314697265626
1766001803240164600,8.36416455078125,1.3122897148132324,37.82736206054688,-0.7774389386177063,6.733095703125001
1766001803258946000,8.382946044921875,-6.496910095214844,4.17669677734375,-6.243804454803467,6.7518771972656255
1766001803287117800,8.411117919921875,-1.6125640869140625,17.760250091552734,6.9157819747924805,6.7800490722656255
1766001803305899300,8.429899169921875,-19.127046585083008,30.33578491210937,7.514616012573242,6.7988303222656254
1766001803324680400,8.448680419921875,-15.501399040222168,-0.2840795516967773,-3.6771068572998047,6.817611572265625
1766001803343462000,8.4674619140625,-13.47291374206543,-8.024664878845215,-5.729658603668213,6.836393066406251
1766001803371634000,8.495634033203125,-3.4578914642333984,-5.74582052230835,-5.321463584899902,6.8645651855468754
1766001803390415000,8.5144150390625,0.2261652946472168,-0.1651411056518554,0.0278366804122924,6.883346191406251
1766001803409196500,8.533196533203125,1.2739200592041016,-0.2637720108032226,5.441337585449219,6.902127685546875
1766001803427977700,8.551977783203125,2.5869743824005127,-2.4640755653381348,8.517643928527832,6.920908935546875
1766001803446759200,8.57075927734375,3.3158106803894043,-4.649364471435547,6.029526710510254,6.939690429687501
1766001803465540400,8.589540283203124,3.959543228149414,-5.360543727874756,3.0007529258728027,6.958471435546875
1766001803484321800,8.60832177734375,3.5226893424987797,-4.2168498039245605,0.9204533100128174,6.977252929687501
1766001803503103000,8.62710302734375,2.292510271072388,-2.5886306762695312,-2.34851622581482,6.996034179687501
1766001803521884400,8.645884521484374,1.3675458431243896,0.7478523254394531,-3.897539138793945,7.014815673828125
1766001803540665600,8.66466552734375,0.6924343109130859,6.609896659851074,-3.070044994354248,7.033596679687501
1766001803559447000,8.683447021484374,-0.2021899223327636,8.652874946594238,-1.826090931892395,7.052378173828125
1766001803578228200,8.702228271484374,0.9414523839950562,3.0578737258911133,-1.398582100868225,7.071159423828125
1766001803597009700,8.721009765625,3.782499313354492,-1.0074806213378906,-2.041639804840088,7.089940917968751
1766001803615790800,8.739790771484374,6.123003005981445,-1.1133413314819336,-0.5088956356048584,7.108721923828125
