time,seconds_elapsed,z,y,x,t
1766000669749705500,4.78070556640625,0.7791580557823181,-0.2131154537200927,1.018846035003662,3.0237285156250002
1766000669768486400,4.799486328125,0.6548470258712769,-0.4530325829982757,0.962951958179474,3.04250927734375
1766000669787267300,4.818267333984375,0.5381718873977661,-0.6204095482826233,0.8507055640220642,3.061290283203125
1766000669806048300,4.83704833984375,0.4544833898544311,-0.6523272395133972,0.7036398649215698,3.0800712890625
1766000669824829200,4.8558291015625,0.3556760251522064,-0.4594466686248779,0.5495492219924927,3.09885205078125
1766000669843610000,4.874610107421875,0.30085089802742,-0.1659261435270309,0.4773144721984863,3.1176330566406247
1766000669871781600,4.90278173828125,0.2952004075050354,0.0811686590313911,0.3212385177612304,3.1458046875000005
1766000669890562600,4.9215625,0.2751945853233337,0.015653409063816,0.2169333547353744,3.1645854492187504
1766000669909343200,4.94034326171875,0.1858556121587753,-0.0669660493731498,0.075670875608921,3.1833662109375003
1766000669928124200,4.959124267578125,0.0623082071542739,-0.1611919403076172,-0.0694095119833946,3.202147216796875
1766000669956295700,4.987295654296875,-0.0594066008925437,-0.2884045243263244,-0.2787834107875824,3.230318603515625
1766000669975076600,5.00607666015625,-0.1325576603412628,-0.2264017611742019,-0.3951531648635864,3.249099609375
1766000669993857500,5.024857421875,-0.2209803313016891,-0.0907897800207138,-0.505872368812561,3.26788037109375
1766000670012638500,5.043638427734375,-0.3194822669029236,0.0628427118062973,-0.5971966981887817,3.2866613769531248
1766000670031419400,5.06241943359375,-0.4372264742851257,0.2221257090568542,-0.7256309986114502,3.3054423828124997
1766000670050200300,5.081200439453125,-0.5584831237792969,0.3151298761367798,-0.8853721618652344,3.3242233886718755
1766000670068981200,5.099981201171875,-0.6815723776817322,0.3236819803714752,-1.0568723678588867,3.3430041503906254
1766000670087762200,5.11876220703125,-0.809548556804657,0.3348302543163299,-1.229136347770691,3.3617851562500003
1766000670106543000,5.137543212890625,-0.9575305581092834,0.3630827665328979,-1.3604722023010254,3.380566162109375
1766000670125324000,5.156323974609375,-1.0844377279281616,0.4098139107227325,-1.384601354598999,3.399346923828125
1766000670144105000,5.17510498046875,-1.1801908016204834,0.5368737578392029,-1.5060107707977295,3.4181279296875
1766000670172276500,5.2032763671875,-1.320078730583191,0.6653081178665161,-1.7413463592529297,3.44629931640625
1766000670191057400,5.222057373046875,-1.4173589944839478,0.6202568411827087,-1.90230929851532,3.465080322265625
1766000670209838300,5.24083837890625,-1.4811943769454956,0.5588648915290833,-1.972406029701233,3.4838613281249997
1766000670228619300,5.259619384765625,-1.522733211517334,0.695698618888855,-1.9898157119750977,3.5026423339843755
1766000670247400200,5.278400146484375,-1.7417281866073608,1.3966659307479858,-2.157803535461426,3.5214230957031254
1766000670266181000,5.29718115234375,-1.893375396728516,1.8781801462173464,0.3626246154308319,3.5402041015625003
1766000670284962000,5.315962158203125,0.4607447683811188,1.5034146308898926,1.5435789823532104,3.5589851074218752
1766000670303743000,5.334742919921875,0.7090612649917603,0.2871828079223633,1.187750220298767,3.577765869140625
1766000670322524000,5.35352392578125,0.7942769527435303,0.0303141642361879,0.821384072303772,3.596546875
1766000670341304800,5.372304931640625,1.106734275817871,-0.8357393741607666,0.9017127752304076,3.615327880859375
1766000670360085800,5.391085693359375,0.6890554428100586,-1.3419935703277588,0.9426407217979432,3.634108642578125
1766000670378866700,5.40986669921875,0.3755291104316711,-1.1480439901351929,0.8881210088729858,3.6528896484374997
1766000670397647600,5.428647705078125,0.4314232468605041,-0.871627688407898,0.765489935874939,3.6716706542968756
1766000670416428500,5.447428466796875,0.5010618567466736,-0.1440877318382263,0.5196168422698975,3.6904514160156254
1766000670435209500,5.46620947265625,0.5105302333831787,0.4779253304004669,0.3789652287960052,3.7092324218750004
1766000670453990700,5.48499072265625,0.5858193039894104,0.3778962194919586,0.4392881393432617,3.7280136718750003
1766000670472771600,5.503771484375,0.7005091905593872,-0.1975383907556533,0.520380437374115,3.74679443359375
1766000670491552500,5.522552490234375,0.7275399565696716,-0.6602684855461121,0.5327504277229309,3.765575439453125
1766000670510333400,5.54133349609375,0.6950113773345947,-0.8203150629997253,0.4936550855636596,3.7843564453125
1766000670529114400,5.5601142578125,0.6882919073104858,-0.7573959827423096,0.4403571486473083,3.80313720703125
1766000670547895300,5.578895263671875,0.7411317229270935,-0.6036107540130615,0.3690386712551117,3.821918212890625
1766000670566676200,5.59767626953125,0.8009964227676392,-0.5819250345230103,0.3148244321346283,3.8406992187499998
1766000670585457200,5.61645703125,0.8662062287330627,-0.608497679233551,0.2734383344650268,3.8594799804687505
1766000670604238000,5.635238037109375,0.8339831233024597,-0.5982657074928284,0.2586248815059662,3.8782609863281254
1766000670623019000,5.65401904296875,0.7464767694473267,-0.6046797633171082,0.3187950551509857,3.8970419921875004
1766000670641800000,5.672800048828125,0.6931788325309753,-0.558254063129425,0.3465894162654876,3.9158229980468753
1766000670669971200,5.70097119140625,0.646905779838562,-0.4551706314086914,0.3624718785285949,3.943994140625
1766000670688752000,5.719752197265625,0.633619487285614,-0.505872368812561,0.3789652287960052,3.962775146484375
1766000670707533300,5.738533203125,0.5861247777938843,-0.6561451554298401,0.4130209386348724,3.98155615234375
1766000670726314200,5.757314208984375,0.4660898149013519,-0.7407498955726624,0.4299724400043487,4.000337158203125
1766000670745095200,5.77609521484375,0.3255909383296966,-0.6379718780517578,0.4324159026145935,4.019118164062499
1766000670763876000,5.7948759765625,0.2163988500833511,-0.3067304790019989,0.4160752594470978,4.037898925781251
1766000670782657000,5.813656982421875,0.1218675225973129,0.0646753087639808,0.3545306324958801,4.056679931640625
1766000670810828300,5.841828369140625,0.0276416316628456,0.2899316847324371,0.2694677114486694,4.084851318359375
1766000670829609200,5.860609130859375,-0.0277943480759859,0.2163224965333938,0.2105192691087722,4.103632080078125
1766000670848390100,5.87939013671875,-0.1094975098967552,0.0190131664276123,0.09414953738451,4.1224130859375006
1766000670867171000,5.898171142578125,-0.1679878085851669,-0.148363783955574,-0.0509308502078056,4.141194091796875
1766000670895342600,5.926342529296875,-0.2515235841274261,-0.1291215419769287,-0.3102429509162903,4.1693654785156244
1766000670914123500,5.94512353515625,-0.3187187016010284,0.054901473224163,-0.5330559015274048,4.188146484375
1766000670932904400,5.963904541015625,-0.4080576598644256,0.2473238706588745,-0.7728202939033508,4.206927490234374
1766000670951685400,5.982685302734375,-0.5090031027793884,0.4282925724983215,-0.9142354726791382,4.225708251953126
1766000670970466300,6.00146630859375,-0.6343830823898315,0.5613083839416504,-1.0944405794143677,4.2444892578125
1766000670989247200,6.020247314453125,-0.8060360550880432,0.4996110200881958,-1.283808708190918,4.263270263671876
1766000671008028200,6.039028076171875,-0.9555452466011048,0.3187950551509857,-1.5211296081542969,4.282051025390626
1766000671026809000,6.05780908203125,-1.0955859422683716,0.2309832423925399,-1.6602541208267212,4.30083203125
1766000671045590000,6.076590087890625,-1.2457059621810913,0.2822958827018738,-1.800600290298462,4.3196130371093755
1766000671064371000,6.095370849609375,-1.3518437147140503,0.4516581594944,-1.9551490545272827,4.338393798828125
1766000671083152000,6.11415185546875,-1.4196497201919556,0.6482039093971252,-2.102520227432251,4.357174804687499
1766000671101933000,6.13293310546875,-1.4790563583374023,1.099632978439331,-2.334954261779785,4.375956054687499
1766000671120714000,6.1517138671875,-1.7989968061447144,1.5038727521896362,-2.094120740890503,4.394736816406249
1766000671139495000,6.170494873046875,-1.9984440803527832,2.1817798614501958,0.5318341255187988,4.413517822265625
1766000671158275800,6.18927587890625,0.2512181401252746,2.392833709716797,0.648967444896698,4.432298828125001
1766000671177056800,6.208056884765625,0.3953822255134582,0.6369028687477112,1.1434625387191772,4.451079833984375
1766000671195837700,6.226837646484375,0.6913462281227112,0.2813795804977417,0.8671988844871521,4.469860595703125
1766000671214618600,6.24561865234375,0.8990402221679688,-0.7065414786338806,0.815122663974762,4.488641601562501
1766000671233399600,6.264399658203125,0.6200277805328369,-1.6984331607818604,0.8607848286628723,4.507422607421875
1766000671252180500,6.283180419921875,0.4778489768505096,-1.897727847099304,0.8818596601486206,4.5262033691406245
1766000671270961400,6.30196142578125,0.5826122760772705,-1.2030218839645386,0.8615484237670898,4.544984375
1766000671289742300,6.320742431640625,0.6036871075630188,-0.093691386282444,0.7381537556648254,4.563765380859374
1766000671317913900,6.348913818359375,0.7121156454086304,0.6033053398132324,0.7757219076156616,4.591936767578126
1766000671336694800,6.36769482421875,0.7428115606307983,0.0781143307685852,0.8902590870857239,4.6107177734375
1766000671355475700,6.386475830078125,0.7820596098899841,-0.5232820510864258,0.9704350829124452,4.629498779296876
1766000671374256600,6.405256591796875,0.7490729093551636,-0.7042507529258728,1.0753511190414429,4.648279541015626
1766000671393037600,6.42403759765625,0.7049379348754883,-0.6298779249191284,1.1181116104125977,4.667060546875
1766000671411818500,6.442818603515625,0.6685914993286133,-0.4406625926494598,1.1211659908294678,4.6858415527343755
1766000671430599400,6.461599365234375,0.6519454121589661,-0.3446041047573089,1.0732131004333496,4.704622314453125
1766000671449380400,6.48038037109375,0.6426297426223755,-0.4270708262920379,1.0170135498046875,4.723403320312499
1766000671477551900,6.5085517578125,0.5842921733856201,-0.5493965148925781,0.8566614985466003,4.751574707031249
1766000671496332800,6.527332763671875,0.485484778881073,-0.4409680068492889,0.7396808862686157,4.770355712890625
1766000671515113700,6.54611376953125,0.4135554432868957,-0.2279289215803146,0.6257545948028564,4.789136718750001
1766000671533894700,6.564894775390625,0.3274235129356384,-0.0573449321091175,0.512133777141571,4.807917724609375
1766000671552675600,6.583675537109375,0.2313650399446487,0.0275652725249528,0.3966803252696991,4.826698486328125
1766000671571456500,6.60245654296875,0.132404938340187,0.0219147745519876,0.2709949016571045,4.845479492187501
1766000671590237400,6.621237548828125,0.0380263328552246,0.0243582334369421,0.1450040340423584,4.864260498046875
1766000671609018400,6.640018310546875,-0.0610864795744419,0.0535270273685455,0.0049632764421403,4.8830412597656245
1766000671627799300,6.65879931640625,-0.1634063273668289,0.1454621702432632,-0.1637881249189376,4.901822265625
1766000671646580200,6.677580322265625,-0.2678641974925995,0.307646781206131,-0.3446041047573089,4.920603271484374
1766000671665361200,6.696361083984375,-0.3738492429256439,0.460821121931076,-0.530154287815094,4.939384033203124
1766000671684142000,6.71514208984375,-0.4589121639728546,0.5761218667030334,-0.6992111206054688,4.9581650390625
1766000671702923300,6.73392333984375,-0.5442805290222168,0.7219657897949219,-0.8942296504974365,4.9769462890625
1766000671721704200,6.7527041015625,-0.6267472505569458,0.766406238079071,-1.1029927730560305,4.99572705078125
1766000671740485000,6.771485107421875,-0.689513623714447,0.5840631127357483,-1.2919026613235474,5.014508056640626
1766000671759266000,6.79026611328125,-0.7278453707695007,0.3045924603939056,-1.4902809858322144,5.0332890625
1766000671778047000,6.809046875,-0.8220712542533875,0.06146826967597,-1.6433025598526,5.05206982421875
1766000671796828000,6.827827880859375,-0.9587522745132446,-0.0816268026828765,-1.8109849691390991,5.070850830078125
