time,seconds_elapsed,z,y,x,t
1766000667730755800,2.761755859375,-1.4524837732315063,1.02419114112854,-2.2350778579711914,1.0047788085937497
1766000667749536800,2.780536865234375,-1.7096577882766724,1.531361699104309,-2.5340962409973145,1.0235598144531246
1766000667768317700,2.799317626953125,-2.260657787322998,2.2236242294311523,0.3487274348735809,1.0423405761718745
1766000667787098600,2.8180986328125,0.1079703494906425,1.8210642337799072,2.4861433506011963,1.0611215820312498
1766000667805879600,2.836879638671875,1.045189619064331,0.2407570779323578,0.963868260383606,1.0799025878906248
1766000667824660500,2.855660400390625,1.0004438161849976,-0.4595993757247925,0.8998801708221436,1.0986833496093746
1766000667843441400,2.87444140625,1.1905754804611206,-0.5894081592559814,0.729143500328064,1.1174643554687496
1766000667862222300,2.893222412109375,0.9363030195236206,-1.223791241645813,0.7108175158500671,1.1362453613281245
1766000667881003300,2.912003173828125,0.6165152788162231,-1.5272382497787476,0.7818305492401123,1.1550261230468748
1766000667899784200,2.9307841796875,0.6870701313018799,-0.9936479330062866,0.5880337357521057,1.1738071289062497
1766000667918565000,2.949565185546875,0.7689260244369507,0.0712421014904975,0.4298197329044342,1.1925881347656246
1766000667937346000,2.968345947265625,0.7887791395187378,0.6327795386314392,0.3618610203266144,1.2113688964843745
1766000667956127000,2.987126953125,0.8804088830947876,0.606970489025116,0.4032471179962158,1.2301499023437499
1766000667974908000,3.005907958984375,0.8940005898475647,0.0365755297243595,0.5205331444740295,1.2489309082031248
1766000667993688800,3.024688720703125,0.9046907424926758,-0.4117992222309112,0.6650026440620422,1.2677116699218747
1766000668012469800,3.0434697265625,0.8675807118415833,-0.4965566992759704,0.7005855441093445,1.2864926757812496
1766000668031250700,3.062250732421875,0.8402445316314697,-0.4244746565818786,0.6625592112541199,1.3052736816406245
1766000668050031600,3.081031494140625,0.8364266157150269,-0.3919461071491241,0.6124683022499084,1.3240544433593748
1766000668068812300,3.099812255859375,0.801301896572113,-0.2644280791282654,0.530154287815094,1.3428352050781247
1766000668087593500,3.118593505859375,0.7200568318367004,-0.0982728749513626,0.4941132366657257,1.3616164550781247
1766000668106374400,3.13737451171875,0.6340776681900024,-0.0556650534272193,0.5107592940330505,1.3803974609374996
1766000668125155000,3.156155029296875,0.606436014175415,-0.0932332351803779,0.5666534304618835,1.3991779785156249
1766000668143936000,3.17493603515625,0.5905535221099854,-0.1749363988637924,0.533666729927063,1.4179589843749998
1766000668162717000,3.193717041015625,0.5613847374916077,-0.2005927264690399,0.4808269441127777,1.4367399902343747
1766000668190888400,3.221888427734375,0.4315759539604187,-0.1314122825860977,0.4247801005840301,1.4649113769531246
1766000668209669400,3.24066943359375,0.2887863218784332,-0.2018144577741623,0.395764023065567,1.4836923828124995
1766000668228450300,3.2594501953125,0.1823431402444839,-0.2822958827018738,0.3264308571815491,1.5024731445312498
1766000668247231200,3.278231201171875,0.1183550506830215,-0.2196822464466095,0.2201403975486755,1.5212541503906247
1766000668266012200,3.29701220703125,0.0407752245664596,-0.0712421014904975,0.176005408167839,1.5400351562499996
1766000668284793000,3.31579296875,-0.0462730079889297,0.0912479236721992,0.1086575761437416,1.5588159179687495
1766000668303574000,3.334573974609375,-0.1429423540830612,0.1337030231952667,0.0122936535626649,1.5775969238281249
1766000668322355000,3.35335498046875,-0.2469420880079269,0.0310777463018894,-0.1239291951060295,1.5963779296874998
1766000668341136000,3.372135986328125,-0.3646862804889679,-0.0623845644295215,-0.2946659028530121,1.6151589355468747
1766000668359916800,3.390916748046875,-0.4920515716075897,-0.0738382786512374,-0.4828122556209564,1.6339396972656246
1766000668378697700,3.40969775390625,-0.6230821013450623,0.0173332877457141,-0.6851612329483032,1.6527207031249995
1766000668397478700,3.428478759765625,-0.7574723362922668,0.1353829056024551,-0.8491783738136292,1.671501708984375
1766000668416259300,3.44725927734375,-0.8834632039070129,0.2642753720283508,-0.9847903847694396,1.6902822265624997
1766000668435040300,3.466040283203125,-0.988990068435669,0.3068831861019134,-1.138117432594299,1.7090632324218746
1766000668453821400,3.484821533203125,-1.0997092723846436,0.2676351368427276,-1.3012183904647827,1.7278444824218746
1766000668472602400,3.503602294921875,-1.2188279628753662,0.2219729870557785,-1.4936407804489136,1.7466252441406245
1766000668491383000,3.522383056640625,-1.3338232040405271,0.233732134103775,-1.706068992614746,1.7654060058593748
1766000668510164000,3.5411640625,-1.4509565830230713,0.3647626340389251,-1.896353363990784,1.7841870117187497
1766000668528945000,3.55994482421875,-1.5514438152313232,0.627129077911377,-2.027231216430664,1.8029677734374996
1766000668547725800,3.578725830078125,-1.5919135808944702,0.9172898530960084,-2.08556866645813,1.8217487792968745
1766000668566506800,3.5975068359375,-1.621082425117493,1.101160168647766,-2.05548357963562,1.8405297851562499
1766000668585287700,3.61628759765625,-1.7837251424789429,1.0446550846099854,-1.7877721786499023,1.8593105468749997
1766000668604068600,3.635068603515625,-1.0166317224502563,1.7366122007369995,0.8432224988937378,1.8780915527343747
1766000668622849500,3.653849609375,1.0056360960006714,0.8329904675483704,1.380478024482727,1.8968725585937496
1766000668641630500,3.67263037109375,0.9016364216804504,-0.058719377964735,1.346727728843689,1.9156533203124995
1766000668660411400,3.691411376953125,0.8106175661087036,-0.2042579054832458,0.7862593531608582,1.9344343261718748
1766000668679192300,3.7101923828125,0.8257364630699158,-0.8129846453666687,0.5981130003929138,1.9532153320312498
1766000668697973200,3.72897314453125,0.748920202255249,-1.2912918329238892,0.9098067283630372,1.9719960937499996
1766000668716754200,3.747754150390625,0.5386300086975098,-0.8413898944854736,0.7483857274055481,1.9907770996093745
1766000668735535000,3.76653515625,0.5479456782341003,-0.6094139814376831,0.5924624800682068,2.0095581054687495
1766000668754316000,3.78531591796875,0.7861829996109009,-0.2734383344650268,0.4256964027881622,2.0283388671875
1766000668773097000,3.804096923828125,0.7925970554351807,0.2952767610549927,0.4088976085186004,2.0471198730468747
1766000668791878000,3.8228779296875,0.7786998748779297,0.2001345753669738,0.5240456461906433,2.0659008789062496
1766000668810658800,3.841658935546875,0.7762564420700073,-0.3377318680286407,0.682412326335907,2.0846818847656245
1766000668829439700,3.860439697265625,0.7617483735084534,-0.6801216006278992,0.7691551446914673,2.103462646484375
1766000668848220700,3.879220703125,0.7832813858985901,-0.6503419280052185,0.8041270971298218,2.12224365234375
1766000668867001600,3.898001708984375,0.7579304575920105,-0.3562105298042297,0.8531489968299866,2.1410246582031247
1766000668885782500,3.916782470703125,0.7336485981941223,-0.0220674909651279,0.8646027445793152,2.1598054199218746
1766000668904563500,3.9355634765625,0.6934842467308044,0.0839175507426261,0.876056432723999,2.1785864257812495
1766000668923344400,3.954344482421875,0.6198750138282776,-0.0452803522348403,0.8763619065284729,2.197367431640625
1766000668942125300,3.973125244140625,0.5227475166320801,-0.2589302957057953,0.8476512432098389,2.2161481933593747
1766000668960906200,3.99190625,0.4077522456645965,-0.3534616231918335,0.7755692005157471,2.2349291992187497
1766000668979687200,4.010687255859375,0.3672824501991272,-0.2853502035140991,0.6834813356399536,2.253710205078125
1766000668998468000,4.029468017578125,0.337808221578598,-0.1062141135334968,0.5878809690475464,2.272490966796875
1766000669017249000,4.0482490234375,0.2831358313560486,0.0180968698114156,0.5020545125007629,2.29127197265625
1766000669036030000,4.067030029296875,0.2486219704151153,-0.067576915025711,0.4174497127532959,2.3100529785156247
1766000669054811000,4.085810791015625,0.1912006735801696,-0.2473238706588745,0.3412443399429321,2.3288337402343746
1766000669073591800,4.104591796875,0.1020144149661064,-0.3320813775062561,0.2210566848516464,2.3476147460937495
1766000669092372700,4.123372802734375,0.0329866968095302,-0.3728565871715545,0.0900261998176574,2.3663957519531245
1766000669111153700,4.142153564453125,-0.0398589260876178,-0.3507127463817596,-0.0562759190797805,2.3851765136718743
1766000669129934600,4.1609345703125,-0.1237001195549964,-0.2700785994529724,-0.1998291462659835,2.4039575195312497
1766000669148715500,4.179715576171875,-0.2452622056007385,-0.2384663373231887,-0.3499491512775421,2.4227385253906255
1766000669167496400,4.198496337890625,-0.3480401933193207,-0.2525162398815155,-0.4953349828720093,2.4415192871093754
1766000669186277400,4.21727734375,-0.4590648710727691,-0.1966221034526825,-0.6370556354522705,2.4603002929687503
1766000669205058300,4.236058349609375,-0.5720748901367188,-0.0425314605236053,-0.7549524903297424,2.4790812988281252
1766000669233229800,4.264229736328125,-0.7115047574043274,0.1314122825860977,-0.9174425601959229,2.507252685546875
1766000669252010800,4.2830107421875,-0.8051197528839111,0.1283579617738723,-1.05091655254364,2.52603369140625
1766000669270791700,4.301791748046875,-0.9092722535133362,0.1178205460309982,-1.1909571886062622,2.544814697265625
1766000669289572600,4.320572509765625,-1.012661099433899,0.1879172772169113,-1.3452006578445437,2.563595458984375
1766000669308353500,4.339353515625,-1.119409680366516,0.2926805913448334,-1.4890592098236084,2.5823764648437497
1766000669327134500,4.358134521484375,-1.21287202835083,0.3614028692245483,-1.5909209251403809,2.6011574707031255
1766000669345915400,4.376915283203125,-1.2621994018554688,0.3975966274738312,-1.6787327527999878,2.6199382324218754
1766000669364696300,4.3956962890625,-1.320536971092224,0.5185478329658508,-1.768682599067688,2.6387192382812503
1766000669392867600,4.42386767578125,-1.501658320426941,1.7422627210617063,-2.4307072162628174,2.666890625
1766000669411648500,4.4426484375,-2.3284637928009038,1.461264967918396,-1.8859686851501465,2.68567138671875
1766000669430429400,4.461429443359375,-1.6743803024291992,2.0733513832092285,1.6014584302902222,2.704452392578125
1766000669449210400,4.48021044921875,0.8087849617004395,1.4049125909805298,0.4263072609901428,2.7232333984375
1766000669467991300,4.4989912109375,0.5111411213874817,0.1181259751319885,1.374522089958191,2.7420141601562498
1766000669486772200,4.517772216796875,0.717307984828949,0.1995237022638321,0.9510400891304016,2.7607951660156247
1766000669505553200,4.53655322265625,0.8958331942558289,-0.2421315312385559,0.8558979034423828,2.7795761718750005
1766000669524334000,4.555333984375,0.7655662894248962,-0.8865938782691956,0.871627688407898,2.7983569335937504
1766000669543115000,4.574114990234375,0.6108647584915161,-1.2957205772399902,0.9956332445144652,2.8171379394531253
1766000669561896000,4.59289599609375,0.7606793642044067,-1.0529018640518188,0.988455593585968,2.8359189453125
1766000669580676900,4.6116767578125,0.905912458896637,-0.1385899484157562,0.7499128580093384,2.85469970703125
1766000669599458000,4.6304580078125,0.9524909257888794,0.5044979453086853,0.6303361058235168,2.87348095703125
1766000669618239000,4.649239013671875,1.011744737625122,0.505872368812561,0.8094722032546997,2.892261962890625
1766000669637020000,4.66802001953125,1.0308343172073364,-0.083764836192131,0.8980475664138794,2.91104296875
1766000669655800800,4.68680078125,1.0990984439849854,-0.6304888129234314,0.9252310395240784,2.9298237304687498
1766000669674581800,4.705581787109375,1.0421353578567505,-0.71463543176651,1.0312161445617676,2.9486047363281247
1766000669693362700,4.72436279296875,0.985783040523529,-0.3566686809062958,1.1010074615478516,2.9673857421875005
1766000669712143600,4.7431435546875,0.933095932006836,-0.0891098976135253,1.089859127998352,2.9861665039062504
1766000669730924500,4.761924560546875,0.8698714375495911,-0.0437531881034374,1.0554980039596558,3.0049475097656253
