time,seconds_elapsed,z,y,x,t
1766001286038509600,6.554509521484375,-2.238149642944336,-0.5833215713500977,1.3238232135772705,5.0707631835937494
1766001286057290200,6.573290283203125,-1.766587495803833,-0.6076135635375977,0.4342479705810547,5.089543945312499
1766001286085461200,6.601461181640625,-1.2159048318862915,-0.0569467544555664,-2.001410961151123,5.117714843749999
1766001286104242000,6.620241943359375,0.6467793583869934,1.0813398361206057,-3.921644687652588,5.136495605468749
1766001286123022300,6.639022216796875,2.5887932777404785,2.9730749130249023,-6.003816604614258,5.15527587890625
1766001286141803000,6.657802978515625,3.5077078342437744,4.281749725341797,-6.962337493896484,5.1740566406249995
1766001286160583700,6.676583740234375,2.976996660232544,3.673259735107422,-5.701442241668701,5.192837402343749
1766001286179364400,6.6953642578125,2.4832026958465576,2.261558532714844,-3.799036264419556,5.211617919921874
1766001286198145000,6.71414501953125,1.87196683883667,1.302372932434082,-1.8240597248077397,5.230398681640624
1766001286226315800,6.742315673828125,0.8827918767929077,-0.099456787109375,1.4622633457183838,5.2585693359375
1766001286245096400,6.761096435546875,0.7319559454917908,-1.7470417022705078,3.1884660720825195,5.2773500976562495
1766001286263877000,6.779877197265625,0.8984420895576477,-3.733783721923828,4.454111099243164,5.296130859374999
1766001286282657800,6.79865771484375,-0.4674247503280639,-5.247966766357422,5.515883445739746,5.314911376953124
1766001286301438500,6.8174384765625,-2.254565954208374,-6.784814357757568,7.3999342918396,5.333692138671874
1766001286320219000,6.836218994140625,-3.0987002849578857,-6.569764614105225,8.638526916503906,5.352472656249999
1766001286338999600,6.85499951171875,16.346210479736328,-6.784814357757568,4.342974662780762,5.371253173828125
1766001286357780200,6.8737802734375,5.9517974853515625,-11.151421546936035,-14.418947219848633,5.3900339355468745
1766001286376561000,6.892560791015625,1.5563374757766724,-11.151421546936035,-14.462668418884276,5.408814453124999
1766001286404732000,6.92073193359375,-3.649749279022217,-16.221269607543945,-5.712821960449219,5.436985595703124
1766001286423512600,6.9395126953125,-4.982752799987793,-4.204470634460449,0.0030333995819091,5.455766357421874
1766001286442293000,6.95829296875,-5.65845251083374,6.135760307312012,2.714174747467041,5.474546630859375
1766001286461073700,6.97707373046875,-3.667944669723511,5.083762168884277,8.858068466186523,5.4933273925781245
1766001286489244700,7.00524462890625,-2.805818796157837,0.0417795181274414,4.0796380043029785,5.521498291015624
1766001286508025300,7.024025390625,-2.477711677551269,4.045166015625,2.379115104675293,5.540279052734374
1766001286526806000,7.042805908203125,-1.3962149620056152,13.295598983764648,2.265010356903076,5.559059570312499
1766001286545586400,7.06158642578125,0.0936083793640136,15.73648452758789,-0.9798669815063475,5.577840087890625
1766001286564367000,7.0803671875,3.193278312683105,20.093595504760746,-8.994913101196289,5.596620849609375
1766001286583147800,7.099147705078125,4.816371917724609,18.177370071411133,-17.851165771484375,5.615401367187499
1766001286601928400,7.117928466796875,6.478496551513672,10.405025482177734,-16.88927459716797,5.634182128906249
1766001286620709000,7.136709228515625,7.2664313316345215,1.6900691986083984,-8.324443817138672,5.652962890624999
1766001286639489800,7.15548974609375,2.695031881332397,-2.390076160430908,-6.019360065460205,5.671743408203124
1766001286658270500,7.1742705078125,3.453258514404297,-2.092111110687256,-10.870712280273438,5.690524169921875
1766001286677051000,7.19305078125,3.609482526779175,0.6924471855163574,-11.464448928833008,5.7093044433593745
1766001286695831600,7.21183154296875,3.0833816528320312,2.026895523071289,-7.055157661437988,5.728085205078124
1766001286724002600,7.24000244140625,1.2603468894958496,-0.4322915077209472,-1.7844486236572266,5.756256103515624
1766001286742783200,7.258783203125,0.2924160957336426,-2.533921241760254,0.1579980850219726,5.775036865234374
1766001286761564000,7.27756396484375,-2.686855792999268,-3.810847759246826,3.906900644302368,5.793817626953124
1766001286780344600,7.296344482421875,-7.9957451820373535,-4.384730815887451,13.454773902893066,5.81259814453125
1766001286799125000,7.315125,-6.64202880859375,-2.389558792114258,26.176942825317383,5.831378662109374
1766001286817905700,7.33390576171875,-4.39275598526001,-0.6323094367980957,18.666723251342773,5.850159423828124
1766001286846076700,7.36207666015625,-11.985942840576172,-4.788485050201416,-1.339277744293213,5.878330322265624
1766001286864857300,7.380857421875,-13.148160934448242,-6.233760833740234,-2.2008180618286133,5.897111083984374
1766001286893028000,7.409028076171875,-7.793889999389648,-8.314075469970703,0.847679615020752,5.9252817382812495
1766001286911808800,7.427808837890625,-7.946375846862793,-6.227321147918701,0.8123713731765747,5.944062499999999
1766001286930589400,7.44658935546875,-8.499869346618652,-2.5344696044921875,-1.266157150268555,5.962843017578124
1766001286949370000,7.4653701171875,-9.4832124710083,-1.867297649383545,0.2255574315786361,5.981623779296874
1766001286968150800,7.48415087890625,-8.019471168518066,-2.9916634559631348,4.087182998657227,6.000404541015624
1766001286986931500,7.502931396484375,-5.240317344665527,-4.028851509094238,5.272036552429199,6.01918505859375
1766001287005712100,7.521712158203125,-4.00718879699707,-2.088207244873047,2.44338321685791,6.0379658203124995
1766001287024492500,7.540492431640625,-3.232971668243408,1.1620826721191406,-0.4590219259262085,6.056746093749999
1766001287043273200,7.559273193359375,-3.718274116516113,1.433549880981445,-1.3160934448242188,6.075526855468749
1766001287062054000,7.578053955078125,-2.715181589126587,-0.7181148529052734,-1.8017325401306152,6.094307617187499
1766001287080834600,7.59683447265625,-1.7820978164672852,-2.1879096031188965,-1.7889829874038696,6.113088134765624
1766001287099615200,7.615615234375,-1.6629632711410522,-2.332853317260742,-1.0705839395523071,6.131868896484375
1766001287118396000,7.63439599609375,-1.437065362930298,-2.1270012855529785,-0.1807377338409423,6.1506496582031245
1766001287137176300,7.65317626953125,-2.161868095397949,-3.3725662231445312,0.0279761552810668,6.169429931640624
1766001287155957000,7.67195703125,-3.090724468231201,-5.709096431732178,0.0004245042800903,6.188210693359374
1766001287174737700,7.690737548828125,-5.228765487670898,-8.25346565246582,2.1381983757019043,6.206991210937499
1766001287202908700,7.71890869140625,-0.32651078701019287,8.820366859436035,5.029097557067871,6.235162353515625
1766001287221689300,7.737689453125,17.206342697143555,1.1231765747070312,-12.530604362487791,6.2539431152343745
1766001287240470000,7.756469970703125,2.4377028942108154,11.234671592712402,-11.705071449279783,6.272723632812499
1766001287259250700,7.775250732421875,-13.070419311523438,-6.574013710021973,-10.041229248046877,6.291504394531249
1766001287287421400,7.80342138671875,-5.6708269119262695,-8.979073524475098,-1.7177449464797974,6.319675048828124
1766001287306202000,7.8222021484375,-8.072071075439453,-2.1415786743164062,10.616487503051758,6.338455810546875
1766001287324982800,7.840982666015625,-4.53977632522583,4.8019609451293945,12.40969467163086,6.3572363281249995
1766001287343763500,7.859763427734375,-1.779390811920166,4.798495292663574,9.19914722442627,6.376017089843749
1766001287362544000,7.878544189453125,3.7585158348083496,-0.4219322204589844,5.644686698913574,6.394797851562499
1766001287381324800,7.89732470703125,3.6323490142822266,-2.199316024780273,1.9421181678771973,6.413578369140624
1766001287400105200,7.916105224609375,3.468525648117065,-1.578272819519043,-0.6268320679664612,6.432358886718749
1766001287418886000,7.934885986328125,5.528781414031982,-0.3576631546020508,-4.4201178550720215,6.4511396484375
1766001287437666600,7.95366650390625,6.08693265914917,0.9235782623291016,-8.356329917907715,6.4699201660156245
1766001287456447200,7.972447265625,4.17182731628418,0.463658332824707,-6.116533279418945,6.488700927734374
1766001287475228000,7.991227783203125,0.2673131227493286,-0.5191860198974609,0.3467797636985779,6.507481445312499
1766001287494008600,8.010008544921876,-2.2581281661987305,-0.7217674255371094,5.172902584075928,6.52626220703125
1766001287512789000,8.0287890625,-2.3728528022766118,-0.6939926147460938,6.059627532958984,6.545042724609374
1766001287531569700,8.047569580078125,-0.9238004684448242,-0.2323570251464843,2.246807098388672,6.5638232421875
1766001287550350300,8.066350341796875,-1.4794952869415283,0.2619314193725586,-1.2736022472381592,6.5826040039062494
1766001287569131000,8.085131103515625,-1.515801191329956,0.1044397354125976,-2.170858860015869,6.601384765624999
1766001287587911700,8.10391162109375,-0.1416948735713958,0.2617130279541015,0.5860545635223389,6.620165283203125
1766001287606692400,8.1226923828125,0.2565911114215851,0.5522632598876953,4.9114532470703125,6.638946044921875
1766001287625473000,8.14147314453125,-0.9725645184516908,0.189676284790039,8.230416297912598,6.657726806640625
1766001287644253700,8.160253662109374,-2.748618602752685,-1.0525026321411133,6.817421913146973,6.676507324218749
1766001287663034400,8.179034423828124,-3.4022111892700195,-1.2641010284423828,1.6153151988983154,6.695288085937499
1766001287681814800,8.197814697265626,-2.4505417346954346,0.1481351852416992,-2.4623067378997803,6.714068359375
1766001287700595500,8.216595458984376,-0.8508583307266235,1.2308273315429688,-4.133983135223389,6.73284912109375
1766001287719376100,8.235376220703126,0.0218016505241394,0.4252099990844726,-3.0675668716430664,6.7516298828125
1766001287738156800,8.25415673828125,0.2936600744724273,-0.5059585571289062,-0.3699389398097992,6.770410400390624
1766001287756937500,8.2729375,0.5638200044631958,-0.4524421691894531,2.346042394638061,6.789191162109374
1766001287775718100,8.29171826171875,0.6767481565475464,-0.0690374374389648,3.5944933891296387,6.8079719238281236
1766001287794498600,8.31049853515625,0.3462079465389251,0.0326595306396484,2.5496373176574707,6.826752197265625
1766001287813279200,8.329279296875,0.0694772005081176,-0.0191707611083984,0.1953661143779754,6.845532958984375
1766001287832060000,8.348059814453125,-0.1066616475582122,0.1777782440185547,-1.717940330505371,6.864313476562499
1766001287850840600,8.366840576171874,-0.3313557505607605,0.4268712997436523,-2.506152391433716,6.883094238281249
1766001287869621200,8.385621337890624,-0.7525737285614014,0.5845041275024414,-1.974559307098389,6.901874999999999
1766001287888402000,8.40440185546875,-1.2438627481460571,0.5259342193603516,-0.6580880880355835,6.920655517578124
1766001287907182600,8.4231826171875,-2.1790716648101807,0.7902956008911133,-0.4091827571392059,6.939436279296874
1766001287925963300,8.44196337890625,-2.7019593715667725,1.6064586639404297,-1.502061128616333,6.958217041015624
1766001287944743700,8.46074365234375,-1.484513759613037,1.267547607421875,-2.5912866592407227,6.976997314453124
1766001287963524400,8.4795244140625,-0.0083085000514984,0.3779106140136719,-2.092257499694824,6.995778076171874
1766001287982305000,8.498304931640625,0.6776133179664612,0.6932058334350586,-0.9868983030319214,7.0145585937499995
1766001288010476000,8.52647607421875,1.1593693494796753,1.6268854141235352,-2.6355252265930176,7.042729736328125
1766001288029256700,8.545256591796875,1.692033767700195,1.1205129623413086,-4.654102325439453,7.061510253906249
1766001288048037400,8.564037353515625,0.2300564348697662,-0.0197124481201171,-4.444324970245361,7.080291015624999
1766001288066817800,8.58281787109375,-0.876191258430481,-1.037114143371582,-1.4690207242965698,7.099071533203125
1766001288085598500,8.601598388671874,-1.9703437089920044,-1.645795822143555,0.6509171724319458,7.117852050781249
1766001288104379100,8.620379150390624,-2.3932392597198486,-1.3428707122802734,0.851625382900238,7.1366328124999985
