time,seconds_elapsed,z,y,x,t
1766001284986794800,5.502794677734375,2.2271265983581543,2.101901054382324,-1.7965751886367798,4.019048339843749
1766001285005575400,5.521575439453125,-0.581344485282898,2.926161766052246,-1.4651472568511963,4.037829101562499
1766001285024356000,5.540356201171875,-3.5377211570739746,0.3767223358154297,-1.9018676280975344,4.056609863281249
1766001285052526800,5.56852685546875,-6.796113967895508,-3.777697086334229,-7.379230976104736,4.084780517578125
1766001285071307500,5.5873076171875,-10.578739166259766,-3.341444969177246,-4.336865425109863,4.1035612792968745
1766001285090088200,5.606088134765625,-9.727210998535156,-3.73482608795166,4.576213836669922,4.122341796874999
1766001285108868900,5.624868896484375,0.3843034505844116,5.913710594177246,8.998740196228027,4.141122558593749
1766001285127649500,5.6436494140625,-1.7132208347320557,26.56415367126465,18.253217697143555,4.159903076171874
1766001285146430000,5.662429931640625,-6.684127330780029,-3.140421867370605,16.705825805664062,4.178683593749999
1766001285165210600,5.681210693359375,-6.378875732421875,-11.304965019226074,-1.8107954263687132,4.19746435546875
1766001285183991300,5.6999912109375,-3.832724094390869,-3.570799827575684,-9.934233665466309,4.2162448730468745
1766001285212162300,5.728162353515625,1.1490099430084229,3.442462921142578,6.467544555664063,4.244416015624999
1766001285230943000,5.74694287109375,4.602691173553467,-1.861238956451416,10.381662368774414,4.263196533203124
1766001285249723400,5.765723388671875,8.461365699768066,-4.496644973754883,-0.8097225427627563,4.281977050781249
1766001285268504000,5.784504150390625,11.50245761871338,1.120370864868164,-10.35239315032959,4.3007578125
1766001285287284700,5.80328466796875,11.78260326385498,4.724275588989258,-13.676312446594238,4.3195383300781245
1766001285306065400,5.8220654296875,9.704741477966309,-0.3583784103393554,-12.659975051879885,4.338319091796874
1766001285324845800,5.840845703125,10.245771408081056,-2.028355598449707,-9.839703559875488,4.357099365234374
1766001285343626500,5.85962646484375,11.996001243591309,-1.6707830429077148,-6.921686172485352,4.375880126953124
1766001285362407200,5.8784072265625,14.556900024414062,-2.6915059089660645,-5.681493282318115,4.394660888671874
1766001285381187800,5.897187744140625,14.807371139526367,-3.1788063049316406,-5.462624549865723,4.41344140625
1766001285399968500,5.915968505859375,11.510581970214844,-0.8415956497192383,-6.208117485046387,4.4322221679687495
1766001285418749000,5.9347490234375,10.948083877563477,5.413239479064941,-3.155182123184204,4.451002685546874
1766001285446920000,5.962919921875,0.7735207080841064,10.102360725402832,23.22893524169922,4.479173583984374
1766001285465700600,5.98170068359375,0.4400782585144043,7.04733943939209,27.961280822753903,4.497954345703124
1766001285484481300,6.000481201171875,-3.914872884750366,3.713539123535156,15.965660095214844,4.51673486328125
1766001285503261700,6.01926171875,-5.7940850257873535,3.478335380554199,3.4786810874938965,4.5355153808593744
1766001285522042400,6.03804248046875,-3.800200700759888,4.8672285079956055,-1.4231421947479248,4.554296142578124
1766001285540823000,6.056822998046875,-3.198096752166748,4.285740852355957,-3.435718536376953,4.573076660156249
1766001285559603700,6.075603759765625,-2.365971326828003,-3.3518829345703125,-8.729039192199707,4.591857421874999
1766001285578384400,6.09438427734375,-7.41788911819458,-3.989802360534668,-8.579665184020996,4.610637939453125
1766001285606555100,6.12255517578125,-14.358673095703123,8.133429527282715,3.67607855796814,4.6388088378906245
1766001285625335800,6.141335693359375,1.1589787006378174,16.35300064086914,13.031482696533203,4.657589355468749
1766001285644116500,6.160116455078125,-1.1005306243896484,5.290184497833252,8.172327041625977,4.676370117187499
1766001285662897200,6.178897216796875,-0.8203444480895996,2.2234816551208496,-6.787966251373291,4.695150878906249
1766001285691068200,6.207068115234375,6.808200359344482,-0.2339305877685547,-10.752955436706545,4.72332177734375
1766001285709848600,6.2258486328125,-11.799519538879396,2.2466068267822266,0.286355972290039,4.7421022949218745
1766001285728629200,6.244629150390625,-22.706809997558597,2.5729904174804688,22.346088409423828,4.760882812499999
1766001285747410000,6.263409912109375,-2.246914863586426,1.3194165229797363,28.32912826538086,4.779663574218749
1766001285766190600,6.282190673828125,-5.875062942504883,4.010519504547119,0.1541752815246582,4.798444335937499
1766001285784971300,6.30097119140625,-5.442267894744873,1.3042798042297363,-3.330714702606201,4.817224853515624
1766001285803752000,6.319751953125,-4.274337768554688,-3.773179531097412,-2.014281749725342,4.836005615234375
1766001285822532400,6.338532470703125,-7.5543341636657715,-2.413264751434326,-0.8359107971191406,4.8547861328124995
1766001285850703400,6.366703369140625,-5.049151420593262,-2.1200881004333496,9.087135314941406,4.882957031249999
1766001285869484000,6.385484130859375,-4.972795486450195,-2.370424747467041,12.057003021240234,4.901737792968749
1766001285888264700,6.4042646484375,-5.561935424804688,-2.698744773864746,7.67691707611084,4.920518310546874
1766001285907045400,6.42304541015625,-6.00150203704834,-2.2738428115844727,3.2777132987976074,4.939299072265625
1766001285925825800,6.44182568359375,-4.935471534729004,-1.6958417892456057,2.831554889678955,4.9580793457031245
1766001285944606500,6.4606064453125,-2.382832765579224,-1.1471409797668457,3.313443660736084,4.976860107421874
1766001285963387100,6.47938720703125,0.4909896850585937,-0.4244208335876465,2.3607611656188965,4.995640869140624
1766001285982167800,6.498167724609375,0.1770702600479126,0.1467857360839843,1.5305516719818115,5.014421386718749
1766001286000948500,6.516948486328125,-1.4469289779663086,0.199193000793457,1.0495691299438477,5.033202148437499
1766001286019729000,6.53572900390625,-1.934882402420044,-0.3748884201049804,1.060868740081787,5.051982666015625
1766001286038509600,6.554509521484375,-2.238149642944336,-0.5833215713500977,1.3238232135772705,5.0707631835937494
1766001286057290200,6.573290283203125,-1.766587495803833,-0.6076135635375977,0.4342479705810547,5.089543945312499
1766001286085461200,6.601461181640625,-1.2159048318862915,-0.0569467544555664,-2.001410961151123,5.117714843749999
1766001286104242000,6.620241943359375,0.6467793583869934,1.0813398361206057,-3.921644687652588,5.136495605468749
1766001286123022300,6.639022216796875,2.5887932777404785,2.9730749130249023,-6.003816604614258,5.15527587890625
1766001286141803000,6.657802978515625,3.5077078342437744,4.281749725341797,-6.962337493896484,5.1740566406249995
1766001286160583700,6.676583740234375,2.976996660232544,3.673259735107422,-5.701442241668701,5.192837402343749
1766001286179364400,6.6953642578125,2.4832026958465576,2.261558532714844,-3.799036264419556,5.211617919921874
1766001286198145000,6.71414501953125,1.87196683883667,1.302372932434082,-1.8240597248077397,5.230398681640624
1766001286226315800,6.742315673828125,0.8827918767929077,-0.099456787109375,1.4622633457183838,5.2585693359375
1766001286245096400,6.761096435546875,0.7319559454917908,-1.7470417022705078,3.1884660720825195,5.2773500976562495
1766001286263877000,6.779877197265625,0.8984420895576477,-3.733783721923828,4.454111099243164,5.296130859374999
1766001286282657800,6.79865771484375,-0.4674247503280639,-5.247966766357422,5.515883445739746,5.314911376953124
1766001286301438500,6.8174384765625,-2.254565954208374,-6.784814357757568,7.3999342918396,5.333692138671874
1766001286320219000,6.836218994140625,-3.0987002849578857,-6.569764614105225,8.638526916503906,5.352472656249999
1766001286338999600,6.85499951171875,16.346210479736328,21.086244583129883,4.342974662780762,5.371253173828125
1766001286357780200,6.8737802734375,5.9517974853515625,-8.86059308052063,-14.418947219848633,5.3900339355468745
1766001286376561000,6.892560791015625,1.5563374757766724,-11.151421546936035,-14.462668418884276,5.408814453124999
1766001286404732000,6.92073193359375,-3.649749279022217,-16.221269607543945,-5.712821960449219,5.436985595703124
1766001286423512600,6.9395126953125,-4.982752799987793,-4.204470634460449,0.0030333995819091,5.455766357421874
1766001286442293000,6.95829296875,-5.65845251083374,6.135760307312012,2.714174747467041,5.474546630859375
1766001286461073700,6.97707373046875,-3.667944669723511,5.083762168884277,8.858068466186523,5.4933273925781245
1766001286489244700,7.00524462890625,-2.805818796157837,0.0417795181274414,4.0796380043029785,5.521498291015624
1766001286508025300,7.024025390625,-2.477711677551269,4.045166015625,2.379115104675293,5.540279052734374
1766001286526806000,7.042805908203125,-1.3962149620056152,13.295598983764648,2.265010356903076,5.559059570312499
1766001286545586400,7.06158642578125,0.0936083793640136,21.93574333190918,-0.9798669815063475,5.577840087890625
1766001286564367000,7.0803671875,3.193278312683105,20.093595504760746,-8.994913101196289,5.596620849609375
1766001286583147800,7.099147705078125,4.816371917724609,18.177370071411133,-17.851165771484375,5.615401367187499
1766001286601928400,7.117928466796875,6.478496551513672,10.405025482177734,-16.88927459716797,5.634182128906249
1766001286620709000,7.136709228515625,7.2664313316345215,1.6900691986083984,-8.324443817138672,5.652962890624999
1766001286639489800,7.15548974609375,2.695031881332397,-2.390076160430908,-6.019360065460205,5.671743408203124
1766001286658270500,7.1742705078125,3.453258514404297,-2.092111110687256,-10.870712280273438,5.690524169921875
1766001286677051000,7.19305078125,3.609482526779175,0.6924471855163574,-11.464448928833008,5.7093044433593745
1766001286695831600,7.21183154296875,3.0833816528320312,2.026895523071289,-7.055157661437988,5.728085205078124
1766001286724002600,7.24000244140625,1.2603468894958496,-0.4322915077209472,-1.7844486236572266,5.756256103515624
1766001286742783200,7.258783203125,0.2924160957336426,-2.533921241760254,0.1579980850219726,5.775036865234374
1766001286761564000,7.27756396484375,-2.686855792999268,-3.810847759246826,3.906900644302368,5.793817626953124
1766001286780344600,7.296344482421875,-7.9957451820373535,-4.384730815887451,13.454773902893066,5.81259814453125
1766001286799125000,7.315125,-6.64202880859375,-2.389558792114258,26.176942825317383,5.831378662109374
1766001286817905700,7.33390576171875,-4.39275598526001,-0.6323094367980957,18.666723251342773,5.850159423828124
1766001286846076700,7.36207666015625,-11.985942840576172,-4.788485050201416,-1.339277744293213,5.878330322265624
1766001286864857300,7.380857421875,-13.148160934448242,-6.233760833740234,-2.2008180618286133,5.897111083984374
1766001286893028000,7.409028076171875,-7.793889999389648,-8.314075469970703,0.847679615020752,5.9252817382812495
1766001286911808800,7.427808837890625,-7.946375846862793,-6.227321147918701,0.8123713731765747,5.944062499999999
1766001286930589400,7.44658935546875,-8.499869346618652,-2.5344696044921875,-1.266157150268555,5.962843017578124
1766001286949370000,7.4653701171875,-9.4832124710083,-1.867297649383545,0.2255574315786361,5.981623779296874
1766001286968150800,7.48415087890625,-8.019471168518066,-2.9916634559631348,4.087182998657227,6.000404541015624
1766001286986931500,7.502931396484375,-5.240317344665527,-4.028851509094238,5.272036552429199,6.01918505859375
1766001287005712100,7.521712158203125,-4.00718879699707,-2.088207244873047,2.44338321685791,6.0379658203124995
1766001287024492500,7.540492431640625,-3.232971668243408,1.1620826721191406,-0.4590219259262085,6.056746093749999
1766001287043273200,7.559273193359375,-3.718274116516113,1.433549880981445,-1.3160934448242188,6.075526855468749
1766001287062054000,7.578053955078125,-2.715181589126587,-0.7181148529052734,-1.8017325401306152,6.094307617187499
1766001287080834600,7.59683447265625,-1.7820978164672852,-2.1879096031188965,-1.7889829874038696,6.113088134765624
