time,seconds_elapsed,z,y,x,t
1766001283982032100,4.4980322265625,-3.2619893550872803,-15.169857025146484,11.76782512664795,3.014285888671874
1766001284000812500,4.5168125,-2.762623071670532,-11.92116928100586,3.2941598892211914,3.0330661621093746
1766001284019593200,4.53559326171875,0.7512118816375732,-7.604834079742432,0.5920982360839844,3.0518469238281245
1766001284038374000,4.554373779296875,1.7516905069351196,-3.753618717193604,2.5914666652679443,3.0706274414062493
1766001284057154600,4.573154541015625,5.890988826751709,-5.928462028503418,3.4317421913146973,3.089408203124999
1766001284075935000,4.59193505859375,4.2888898849487305,-11.671463012695312,0.9351344108581544,3.108188720703124
1766001284094715600,4.610715576171875,0.1983671188354492,-14.274528503417969,-3.2112510204315186,3.1269692382812497
1766001284113496300,4.629496337890625,-0.8130605220794678,-13.808479309082031,-6.979823112487793,3.1457499999999996
1766001284132277000,4.648277099609375,-0.7955974340438843,-12.99289321899414,-7.334860801696777,3.1645307617187495
1766001284151057700,4.6670576171875,-0.5180143117904663,-9.501349449157717,-5.300598621368408,3.1833112792968743
1766001284169838000,4.685838134765625,0.8529378771781921,3.117098808288574,-3.631683349609375,3.202091796874999
1766001284188618800,4.70461865234375,11.4813871383667,38.76079559326172,-3.076457262039185,3.220872314453124
1766001284207399400,4.7233994140625,4.005423545837402,18.71914291381836,5.372066497802734,3.2396530761718747
1766001284226180000,4.74218017578125,-2.615445613861084,1.9154644012451167,3.535031080245972,3.2584338378906246
1766001284244960500,4.76096044921875,-8.572290420532227,19.205551147460938,2.9381394386291504,3.2772141113281243
1766001284263741200,4.7797412109375,-5.660486698150635,13.485794067382812,14.06859016418457,3.295994873046874
1766001284282521900,4.79852197265625,0.1383717060089111,2.4102373123168945,8.556509017944336,3.314775634765624
1766001284301302300,4.81730224609375,13.633699417114258,9.140463829040527,-3.1914658546447754,3.333555908203124
1766001284320083000,4.8360830078125,-10.82132625579834,7.67388916015625,-2.833683729171753,3.3523366699218746
1766001284338863600,4.854863525390625,-5.77138090133667,9.400923728942873,-7.51838493347168,3.3711171874999994
1766001284357644300,4.873644287109375,8.156497955322266,-0.5031023025512695,-3.3868443965911865,3.3898979492187493
1766001284376425000,4.892425048828125,-0.6060213446617126,-4.01393985748291,-1.9107460975646973,3.408678710937499
1766001284395205400,4.911205322265625,1.469599723815918,-8.279471397399902,1.363223433494568,3.427458984374999
1766001284413986000,4.929986083984375,1.111911058425903,-11.245121002197266,3.625448226928711,3.4462397460937497
1766001284432766700,4.9487666015625,1.549067735671997,-11.131361961364746,0.9416539669036864,3.4650202636718745
1766001284451547400,4.96754736328125,0.73343825340271,-8.849174499511719,-1.3543734550476074,3.4838010253906244
1766001284470327800,4.986327880859375,0.8042708039283752,-7.267423152923584,0.0754116773605346,3.5025815429687492
1766001284489108500,5.0051083984375,-1.9620109796524048,-5.76759147644043,2.7307496070861816,3.521362060546874
1766001284507889200,5.02388916015625,-4.408008098602295,-5.637208461761475,7.111682891845703,3.540142822265624
1766001284526669800,5.042669921875,-1.0224756002426147,-8.839764595031738,8.259603500366211,3.5589235839843747
1766001284545450200,5.0614501953125,1.7996835708618164,-12.047578811645508,2.304506778717041,3.5777038574218745
1766001284564231000,5.08023095703125,2.880459785461426,-7.480877876281738,-3.389222383499145,3.5964846191406243
1766001284583011600,5.099011474609375,1.5459544658660889,8.235642433166504,-5.609835147857666,3.615265136718749
1766001284601792300,5.117792236328125,6.102762699127197,27.71331024169922,-4.468011379241943,3.634045898437499
1766001284620572700,5.13657275390625,0.0961031913757324,11.920185089111328,-0.2197586447000503,3.652826416015624
1766001284648743700,5.16474365234375,-4.3093671798706055,5.678226470947266,0.4100804924964905,3.6809973144531245
1766001284667524400,5.1835244140625,-3.8519766330718994,9.301830291748049,4.996702671051025,3.6997780761718744
1766001284686305000,5.202304931640625,-2.6022424697875977,10.34493637084961,5.167577266693115,3.718558593749999
1766001284705085400,5.22108544921875,-1.4257763624191284,7.451000213623047,0.7834697961807251,3.737339111328124
1766001284723866000,5.2398662109375,-0.2418873310089111,4.956927299499512,-2.913841009140014,3.756119873046874
1766001284742646800,5.258646728515625,6.300043106079102,-2.819643020629883,-3.3566932678222656,3.7749003906249996
1766001284761427500,5.277427490234375,-17.218978881835938,-7.011792182922363,-0.9073879718780518,3.7936811523437495
1766001284780208000,5.2962080078125,6.304303169250488,-5.9316253662109375,-1.1702176332473757,3.8124616699218743
1766001284798988500,5.314988525390625,4.431398391723633,-8.855241775512695,2.362090587615967,3.831242187499999
1766001284817769200,5.333769287109375,1.7439947128295898,-11.35149383544922,-3.165381908416748,3.850022949218749
1766001284836550000,5.3525498046875,-1.591675043106079,-10.57383155822754,-4.595530033111572,3.8688034667968747
1766001284855330600,5.37133056640625,-0.1937975883483886,-8.157488822937012,-1.6020309925079346,3.8875842285156246
1766001284874111200,5.390111328125,2.154305458068848,-4.428109169006348,0.5843080282211304,3.9063649902343744
1766001284892891600,5.4088916015625,3.4762868881225586,-0.1905221939086914,1.909346103668213,3.925145263671874
1766001284911672300,5.42767236328125,2.8871889114379883,3.8082809448242183,-0.0481437444686889,3.943926025390624
1766001284930453000,5.446452880859375,4.714653015136719,2.3671188354492188,-2.46267318725586,3.962706542968749
1766001284949233700,5.465233642578125,4.022761821746826,-1.3420295715332031,-1.7553489208221436,3.9814873046874997
1766001284968014000,5.48401416015625,3.623322010040283,-0.6146974563598633,-1.049027442932129,4.0002678222656245
1766001284986794800,5.502794677734375,2.2271265983581543,2.101901054382324,-1.7965751886367798,4.019048339843749
1766001285005575400,5.521575439453125,-0.581344485282898,2.926161766052246,-1.4651472568511963,4.037829101562499
1766001285024356000,5.540356201171875,-3.5377211570739746,0.3767223358154297,-1.9018676280975344,4.056609863281249
1766001285052526800,5.56852685546875,-6.796113967895508,-3.777697086334229,-7.379230976104736,4.084780517578125
1766001285071307500,5.5873076171875,-10.578739166259766,-3.341444969177246,-4.336865425109863,4.1035612792968745
1766001285090088200,5.606088134765625,-9.727210998535156,-3.73482608795166,4.576213836669922,4.122341796874999
1766001285108868900,5.624868896484375,0.3843034505844116,5.913710594177246,8.998740196228027,4.141122558593749
1766001285127649500,5.6436494140625,-1.7132208347320557,26.56415367126465,18.253217697143555,4.159903076171874
1766001285146430000,5.662429931640625,-6.684127330780029,-3.140421867370605,16.705825805664062,4.178683593749999
1766001285165210600,5.681210693359375,-6.378875732421875,-11.304965019226074,-1.8107954263687132,4.19746435546875
1766001285183991300,5.6999912109375,-3.832724094390869,-3.570799827575684,-9.934233665466309,4.2162448730468745
1766001285212162300,5.728162353515625,1.1490099430084229,3.442462921142578,6.467544555664063,4.244416015624999
1766001285230943000,5.74694287109375,4.602691173553467,-1.861238956451416,10.381662368774414,4.263196533203124
1766001285249723400,5.765723388671875,8.461365699768066,-4.496644973754883,-0.8097225427627563,4.281977050781249
1766001285268504000,5.784504150390625,11.50245761871338,1.120370864868164,-10.35239315032959,4.3007578125
1766001285287284700,5.80328466796875,11.78260326385498,4.724275588989258,-13.676312446594238,4.3195383300781245
1766001285306065400,5.8220654296875,9.704741477966309,-0.3583784103393554,-12.659975051879885,4.338319091796874
1766001285324845800,5.840845703125,10.245771408081056,-2.028355598449707,-9.839703559875488,4.357099365234374
1766001285343626500,5.85962646484375,11.996001243591309,-1.6707830429077148,-6.921686172485352,4.375880126953124
1766001285362407200,5.8784072265625,14.556900024414062,-2.6915059089660645,-5.681493282318115,4.394660888671874
1766001285381187800,5.897187744140625,14.807371139526367,-3.1788063049316406,-5.462624549865723,4.41344140625
1766001285399968500,5.915968505859375,11.510581970214844,-0.8415956497192383,-6.208117485046387,4.4322221679687495
1766001285418749000,5.9347490234375,10.948083877563477,5.413239479064941,-3.155182123184204,4.451002685546874
1766001285446920000,5.962919921875,0.7735207080841064,10.102360725402832,23.22893524169922,4.479173583984374
1766001285465700600,5.98170068359375,0.4400782585144043,7.04733943939209,27.961280822753903,4.497954345703124
1766001285484481300,6.000481201171875,-3.914872884750366,3.713539123535156,15.965660095214844,4.51673486328125
1766001285503261700,6.01926171875,-5.7940850257873535,3.478335380554199,3.4786810874938965,4.5355153808593744
1766001285522042400,6.03804248046875,-3.800200700759888,4.8672285079956055,-1.4231421947479248,4.554296142578124
1766001285540823000,6.056822998046875,-3.198096752166748,4.285740852355957,-3.435718536376953,4.573076660156249
1766001285559603700,6.075603759765625,-2.365971326828003,-3.3518829345703125,-8.729039192199707,4.591857421874999
1766001285578384400,6.09438427734375,-7.41788911819458,-3.989802360534668,-8.579665184020996,4.610637939453125
1766001285606555100,6.12255517578125,-14.358673095703123,8.133429527282715,3.67607855796814,4.6388088378906245
1766001285625335800,6.141335693359375,1.1589787006378174,16.35300064086914,13.031482696533203,4.657589355468749
1766001285644116500,6.160116455078125,-1.1005306243896484,5.290184497833252,8.172327041625977,4.676370117187499
1766001285662897200,6.178897216796875,-0.8203444480895996,2.2234816551208496,-6.787966251373291,4.695150878906249
1766001285691068200,6.207068115234375,6.808200359344482,-0.2339305877685547,-10.752955436706545,4.72332177734375
1766001285709848600,6.2258486328125,-11.799519538879396,2.2466068267822266,0.286355972290039,4.7421022949218745
1766001285728629200,6.244629150390625,-22.706809997558597,2.5729904174804688,22.346088409423828,4.760882812499999
1766001285747410000,6.263409912109375,-2.246914863586426,1.3194165229797363,28.32912826538086,4.779663574218749
1766001285766190600,6.282190673828125,-5.875062942504883,4.010519504547119,0.1541752815246582,4.798444335937499
1766001285784971300,6.30097119140625,-5.442267894744873,1.3042798042297363,-3.330714702606201,4.817224853515624
1766001285803752000,6.319751953125,-4.274337768554688,-3.773179531097412,-2.014281749725342,4.836005615234375
1766001285822532400,6.338532470703125,-7.5543341636657715,-2.413264751434326,-0.8359107971191406,4.8547861328124995
1766001285850703400,6.366703369140625,-5.049151420593262,-2.1200881004333496,9.087135314941406,4.882957031249999
1766001285869484000,6.385484130859375,-4.972795486450195,-2.370424747467041,12.057003021240234,4.901737792968749
1766001285888264700,6.4042646484375,-5.561935424804688,-2.698744773864746,7.67691707611084,4.920518310546874
1766001285907045400,6.42304541015625,-6.00150203704834,-2.2738428115844727,3.2777132987976074,4.939299072265625
1766001285925825800,6.44182568359375,-4.935471534729004,-1.6958417892456057,2.831554889678955,4.9580793457031245
1766001285944606500,6.4606064453125,-2.382832765579224,-1.1471409797668457,3.313443660736084,4.976860107421874
1766001285963387100,6.47938720703125,0.4909896850585937,-0.4244208335876465,2.3607611656188965,4.995640869140624
1766001285982167800,6.498167724609375,0.1770702600479126,0.1467857360839843,1.5305516719818115,5.014421386718749
1766001286000948500,6.516948486328125,-1.4469289779663086,0.199193000793457,1.0495691299438477,5.033202148437499
1766001286019729000,6.53572900390625,-1.934882402420044,-0.3748884201049804,1.060868740081787,5.051982666015625
