time,seconds_elapsed,z,y,x,t
1766001280967746300,1.483746337890625,6.225057601928711,9.410539627075195,-14.271488189697266,0.0
1766001280986526700,1.502526611328125,6.406350612640381,14.912313461303713,-16.09889793395996,0.018780273437499995
1766001281005307400,1.521307373046875,2.495547294616699,10.593132972717283,-12.178054809570312,0.03756103515624987
1766001281024088000,1.540088134765625,-1.5221632719039917,10.862529754638672,-6.887223720550537,0.05634179687499996
1766001281042868500,1.558868408203125,-5.849102973937988,14.49696922302246,-1.8904162645339968,0.07512207031249996
1766001281061649200,1.577649169921875,-7.02295446395874,13.284101486206056,1.9689955711364744,0.09390283203125005
1766001281080429800,1.596429931640625,-3.03600811958313,8.890312194824219,3.6630921363830566,0.11268359374999992
1766001281099210200,1.615210205078125,-1.6499511003494265,6.706333160400391,5.161120891571045,0.13146386718749992
1766001281117991000,1.633990966796875,-2.5675621032714844,5.2039995193481445,5.082090854644775,0.15024462890625
1766001281136771300,1.652771240234375,-3.821579217910767,2.3312864303588867,5.131228446960449,0.16902490234375
1766001281155552000,1.671552001953125,-5.680934429168701,-1.824392318725586,5.474576950073242,0.18780566406249988
1766001281174332700,1.690332763671875,-7.647676944732666,-5.527929782867432,4.947989940643311,0.20658642578124997
1766001281193113300,1.70911328125,-8.294018745422363,-9.26449966430664,3.6621148586273193,0.22536694335937502
1766001281211893800,1.727893798828125,-8.465368270874023,-14.328914642333984,4.033263206481934,0.24414746093750006
1766001281230674400,1.74667431640625,-7.910521507263184,-19.68326568603516,4.758487224578857,0.2629279785156249
1766001281249455000,1.765455078125,-7.555637359619141,-17.00609016418457,6.706849575042725,0.281708740234375
1766001281268235500,1.784235595703125,-5.226608276367188,-14.294228553771974,7.587769031524658,0.3004892578125
1766001281287016200,1.80301611328125,-3.904813528060913,-5.890979290008545,6.794477462768555,0.31926977539062507
1766001281305796900,1.821796875,-4.398138523101807,-8.905191421508789,8.195716857910156,0.33805053710937494
1766001281324577300,1.840577392578125,-5.75658130645752,-2.876767158508301,7.718420505523682,0.3568310546875
1766001281343358000,1.85935791015625,-2.5815415382385254,0.2284488677978515,2.504357099533081,0.375611572265625
1766001281362138600,1.878138671875,1.0128049850463867,4.021259307861328,0.1088180541992187,0.3943923339843749
1766001281380919000,1.8969189453125,0.9960548877716064,5.868201732635498,-2.534162998199463,0.4131726074218749
1766001281399699700,1.91569970703125,0.4980125427246094,3.669531345367432,-3.2128119468688965,0.431953369140625
1766001281418480400,1.93448046875,0.120255708694458,0.9590673446655272,1.216890811920166,0.45073413085937486
1766001281437260800,1.9532607421875,-0.7064501047134399,1.4877753257751465,3.327063798904419,0.46951440429687485
1766001281456041500,1.97204150390625,-2.136223077774048,6.281700134277344,0.7165799140930176,0.48829516601562495
1766001281474822100,1.990822265625,-0.5694547891616821,8.161657333374023,0.6008539199829102,0.507075927734375
1766001281493602600,2.0096025390625,2.4728362560272217,4.447113513946533,-5.137211322784424,0.525856201171875
1766001281512383200,2.02838330078125,1.739458680152893,1.9018030166625977,-9.089234352111816,0.5446369628906249
1766001281531164000,2.047163818359375,2.192903995513916,1.2647438049316406,-0.8425750732421875,0.5634174804687502
1766001281549944300,2.0659443359375,0.8784488439559937,1.56072998046875,5.469862461090088,0.582197998046875
1766001281578115300,2.094115234375,-5.314530372619629,0.7309799194335938,5.983188629150391,0.6103688964843748
1766001281596896000,2.11289599609375,-3.1559276580810547,-1.948472023010254,2.9881484508514404,0.6291496582031251
1766001281615676400,2.131676513671875,-0.7732495069503784,-4.394258975982666,0.867660403251648,0.6479301757812499
1766001281634457000,2.15045703125,-1.3446249961853027,-4.868934154510498,2.603926181793213,0.6667106933593752
1766001281653237800,2.16923779296875,-3.301730155944824,-1.782975673675537,3.955772399902344,0.685491455078125
1766001281672018200,2.18801806640625,-3.7432937622070312,-0.0382890701293945,4.567533493041992,0.7042717285156248
1766001281690798800,2.206798828125,-0.9561567306518556,-0.8246355056762695,3.0061187744140625,0.7230524902343751
1766001281709579500,2.22557958984375,3.4496400356292725,4.470587730407715,-2.5620760917663574,0.741833251953125
1766001281728360000,2.24435986328125,1.8292266130447388,12.688970565795898,-2.033348798751831,0.7606135253906248
1766001281747140600,2.263140625,2.8922085762023926,12.364986419677734,-0.5760679244995117,0.7793942871093751
1766001281765921300,2.28192138671875,4.25874662399292,16.685287475585938,-10.222095489501951,0.798175048828125
1766001281784701700,2.30070166015625,-4.345033168792725,20.068836212158203,-19.047178268432617,0.8169553222656252
1766001281803482400,2.319482421875,-4.474201679229736,-3.8064136505126953,-3.002189874649048,0.835736083984375
1766001281822263000,2.338262939453125,-1.5580878257751465,-10.894524574279783,5.807497501373291,0.8545166015624999
1766001281841043700,2.357043701171875,0.399924635887146,-8.66955280303955,10.5079345703125,0.8732973632812497
1766001281859824000,2.37582421875,0.4364519417285919,-0.4162044525146484,9.38625431060791,0.892077880859375
1766001281878604800,2.394604736328125,-1.2342395782470703,5.853706359863281,4.4675374031066895,0.9108583984374998
1766001281897385500,2.413385498046875,-0.7297148108482361,3.981121063232422,-2.607550382614136,0.9296391601562501
1766001281916166000,2.432165771484375,-0.1438749730587005,0.1021404266357421,-9.314456939697266,0.9484194335937499
1766001281934946600,2.450946533203125,0.65499347448349,-1.5410919189453125,-7.46065092086792,0.9672001953124998
1766001281953727200,2.469727294921875,0.8765392303466797,-0.7693748474121094,-0.9226655960083008,0.9859809570312501
1766001281972508000,2.4885078125,0.8584518432617188,0.5924339294433594,2.668182373046875,1.004761474609375
1766001281991288300,2.507288330078125,0.0846224725246429,-0.0362319946289062,2.053988456726074,1.0235419921874997
1766001282010069000,2.526069091796875,-0.1804805099964141,-1.2137060165405271,-1.8687951564788816,1.04232275390625
1766001282028849700,2.544849609375,0.0405519902706146,-0.6261043548583984,-4.198025226593018,1.0611032714843749
1766001282047630000,2.563630126953125,1.2754004001617432,0.230316162109375,-3.2558369636535645,1.0798837890625002
1766001282066410800,2.58241064453125,2.329153060913086,0.6242303848266602,-0.6986628770828247,1.098664306640625
1766001282085191400,2.60119140625,1.7748428583145142,-0.4707679748535156,1.3589907884597778,1.1174450683593748
1766001282103971800,2.619971923828125,0.2993865013122558,-1.4915237426757812,2.4056007862091064,1.1362255859375001
1766001282122752500,2.63875244140625,-0.5807293653488159,-1.128493309020996,2.300166130065918,1.155006103515625
1766001282141533200,2.657533203125,-0.1286449432373047,0.0088491439819335,1.255746603012085,1.1737868652343748
1766001282160313900,2.67631396484375,0.6535933017730713,1.285806655883789,-0.2125974297523498,1.1925676269531251
1766001282179094300,2.69509423828125,0.6053071022033691,1.3637018203735352,-0.5630707740783691,1.211347900390625
1766001282197875000,2.713875,-0.3404829502105713,0.2012453079223632,0.4886932373046875,1.2301286621093748
1766001282216655600,2.732655517578125,-0.9165598154067992,-1.695354461669922,2.0014994144439697,1.2489091796875
1766001282235436000,2.75143603515625,-0.660261869430542,-2.022421836853028,2.2582337856292725,1.2676896972656249
1766001282254216700,2.770216796875,-0.6518971920013428,-0.3198013305664062,2.3850865364074707,1.2864704589843752
1766001282272997400,2.788997314453125,-1.3128271102905271,0.2932081222534179,2.322272300720215,1.3052509765625
1766001282291778000,2.807778076171875,-1.4982116222381592,0.1361427307128906,1.349966287612915,1.3240317382812499
1766001282310558500,2.826558349609375,-1.300815224647522,0.5350246429443359,1.0875895023345947,1.34281201171875
1766001282329339100,2.845339111328125,-1.2790610790252686,0.3424406051635742,1.45222270488739,1.3615927734375
1766001282348119800,2.864119873046875,-1.582729697227478,-0.3834667205810547,2.2833251953125,1.3803735351562498
1766001282366900200,2.882900146484375,-1.8845707178115845,-0.7700271606445312,3.0357675552368164,1.39915380859375
1766001282385681000,2.901680908203125,-1.347931146621704,-0.6758241653442383,2.859511137008667,1.4179345703125
1766001282404461600,2.920461669921875,-0.8285650014877319,-0.3216142654418945,1.948248028755188,1.4367153320312498
1766001282423242200,2.9392421875,-0.7486294507980347,-0.4411706924438476,0.6396746635437012,1.455495849609375
1766001282442022700,2.958022705078125,-0.957789182662964,-0.3694772720336914,0.0215356349945068,1.4742763671874999
1766001282460803300,2.97680322265625,-1.0714164972305298,0.0505943298339843,-0.4205933809280395,1.4930568847656251
1766001282479584000,2.995583984375,-0.9245831966400146,-0.0904560089111328,0.0596084594726562,1.511837646484375
1766001282498364400,3.014364501953125,-0.8130037784576416,-0.3330802917480469,1.1037390232086182,1.5306181640624998
1766001282517145000,3.03314501953125,-0.6823471784591675,-0.0369796752929687,1.555569767951965,1.549398681640625
1766001282535925800,3.05192578125,-0.7200363874435425,0.14434814453125,1.4414243698120115,1.568179443359375
1766001282554706400,3.07070654296875,-0.6834719181060791,-0.2541007995605469,0.7807830572128296,1.5869602050781249
1766001282573486800,3.08948681640625,-0.2185361385345459,0.0810661315917968,0.2591034173965454,1.605740478515625
1766001282592267500,3.108267578125,0.3471525907516479,0.6441278457641602,0.6013132333755493,1.624521240234375
1766001282620438500,3.1364384765625,0.6117949485778809,1.1054210662841797,0.9831634163856506,1.6526921386718751
1766001282639219000,3.155218994140625,0.8391327261924744,0.5329189300537109,0.4712984561920166,1.67147265625
1766001282657999600,3.17399951171875,1.4254064559936523,0.3920650482177734,-0.9347686767578124,1.6902531738281248
1766001282676780300,3.1927802734375,2.608447790145874,1.2257928848266602,-3.205902099609375,1.709033935546875
1766001282695560700,3.211560791015625,4.294699192047119,2.2005929946899414,-4.70357084274292,1.727814453125
1766001282714341400,3.23034130859375,4.962386608123779,3.760321617126465,-5.278658866882324,1.7465949707031247
1766001282733122000,3.2491220703125,4.555757522583008,7.121293067932129,-5.472333908081055,1.765375732421875
1766001282751902700,3.26790283203125,2.899272918701172,5.132719993591309,-5.486018657684326,1.784156494140625
1766001282770683100,3.28668310546875,-1.574892282485962,-1.2085065841674805,-2.4874398708343506,1.8029367675781252
1766001282789463800,3.3054638671875,-2.6092848777771,-4.992040634155273,0.693670928478241,1.821717529296875
1766001282808244500,3.324244384765625,-2.640988349914551,-6.2197675704956055,2.076694965362549,1.8404980468749998
1766001282827025200,3.343025146484375,-3.24932861328125,-5.2061920166015625,3.314171314239502,1.8592788085937502
1766001282845805600,3.3618056640625,-3.447173595428467,-4.333098411560059,5.162908554077148,1.878059326171875
1766001282864586200,3.380586181640625,-1.8300373554229736,-3.317067146301269,6.910183429718018,1.8968398437499998
1766001282883367000,3.399366943359375,-0.4898291230201721,-1.3199825286865234,5.942108154296875,1.9156206054687501
1766001282902147300,3.418147216796875,0.0435822010040283,0.5713253021240234,3.2546396255493164,1.93440087890625
1766001282920928000,3.436927978515625,-0.6874398589134216,-0.7929496765136719,1.017086148262024,1.9531816406249998
1766001282939708700,3.455708740234375,-0.7722736597061157,0.4390792846679687,-2.9968366622924805,1.97196240234375
1766001282958489000,3.474489013671875,-2.0101778507232666,3.1421003341674805,-5.141384124755859,1.9907426757812499
