time,seconds_elapsed,z,y,x,t
1765999939433956900,19.40595678710937,-0.2523635029792785,-0.6038398146629333,-1.0065524578094482,18.19726733398437
1765999939452736300,19.424736328125,-0.3114646673202514,-0.8539889454841614,-1.5734349489212036,18.216046875
1765999939480905500,19.452905517578124,-0.2786307036876678,-0.7658717036247253,-2.428034782409668,18.244216064453123
1765999939499684900,19.471684814453123,-0.3403280377388,-0.4694495797157287,-3.071275472640991,18.262995361328123
1765999939518464500,19.49046459960937,-0.5657371282577515,-0.1209512278437614,-3.752389669418335,18.28177514648437
1765999939537244000,19.50924389648437,-0.8206204771995544,0.1737910360097885,-4.282009601593018,18.30055444335937
1765999939556023300,19.52802319335937,-0.904461681842804,-0.7295252680778503,-3.11586856842041,18.31933374023437
1765999939574803000,19.546802978515625,-1.209894061088562,0.4242455959320068,-3.398087978363037,18.338113525390625
1765999939593582300,19.565582275390625,-1.272813081741333,0.8659008145332336,-3.903884172439575,18.356892822265625
1765999939612361700,19.58436181640625,-0.8832340836524963,0.7657189965248108,-3.414123296737671,18.37567236328125
1765999939631141400,19.60314135742188,-0.5961276888847351,1.1977530717849731,-2.693302869796753,18.39445190429688
1765999939649920800,19.62192065429688,-0.4015672206878662,1.1621702909469604,-2.0384557247161865,18.41323120117188
1765999939668700200,19.6407001953125,-0.117667831480503,0.8127555847167969,-1.3959786891937256,18.4320107421875
1765999939687479600,19.6594794921875,0.1934150606393814,0.5013672709465027,-0.6965385675430298,18.4507900390625
1765999939706259200,19.67825927734375,0.4924333691596985,0.3371973633766174,0.0749836489558219,18.46956982421875
1765999939725038600,19.69703857421875,0.81099933385849,0.2165515571832656,0.8109229803085327,18.48834912109375
1765999939743818000,19.71581787109375,1.0189988613128662,0.2919933497905731,1.458897829055786,18.50712841796875
1765999939762597600,19.73459765625,1.119180679321289,0.5346593856811523,1.9888230562210083,18.525908203125
1765999939781377000,19.753376953125,1.1692715883255005,0.7345649003982544,2.3426663875579834,18.5446875
1765999939800156400,19.772156494140624,1.1898882389068604,0.8782708644866943,2.5499022006988525,18.563467041015624
1765999939818936000,19.79093603515625,1.173547625541687,0.9358448386192322,2.67864203453064,18.58224658203125
1765999939837715500,19.809715576171875,1.0417535305023191,0.9970840215682985,2.6975789070129395,18.601026123046875
1765999939856494800,19.828494873046875,0.8841503858566284,0.9572250843048096,2.63435435295105,18.619805419921875
1765999939875274500,19.8472744140625,0.7537307739257812,0.8912517428398132,2.49538254737854,18.6385849609375
1765999939894054000,19.86605395507813,0.5924624800682068,0.8045089244842529,2.330296516418457,18.65736450195313
1765999939912833300,19.884833251953125,0.4293615818023681,0.7881683111190796,2.109468698501587,18.676143798828125
1765999939941002500,19.91300244140625,0.3708712756633758,0.6195695996284485,1.8446589708328247,18.70431298828125
1765999939969171700,19.941171630859376,0.385990172624588,0.0832303240895271,1.6821688413619995,18.732482177734376
1765999939987951000,19.959951171875,0.3540725111961365,-0.2267835438251495,1.5289945602416992,18.75126171875
1765999940006730800,19.978730712890624,0.3563632369041443,-0.4850266277790069,1.3373357057571411,18.770041259765623
1765999940025510100,19.99751025390625,0.3511708974838257,-0.4702131748199463,0.938746452331543,18.78882080078125
1765999940044289800,20.016289794921875,0.1860846877098083,-0.1058323234319686,0.1624900251626968,18.807600341796874
1765999940063069200,20.035069091796878,-0.0797942131757736,0.2003636509180069,-0.8110756874084473,18.826379638671877
1765999940081848600,20.0538486328125,-0.4890736043453216,-0.0361937396228313,-1.512959361076355,18.8451591796875
1765999940100628200,20.072628173828125,-0.3641517758369446,-0.8327614068984985,-1.2721259593963623,18.863938720703125
1765999940119407600,20.09140771484375,-0.0955239832401275,-1.2797616720199585,-0.8593340516090393,18.88271826171875
1765999940138187000,20.11018701171875,-0.0138208158314228,-1.239139199256897,-0.7136427760124207,18.90149755859375
1765999940156966700,20.128966552734376,-0.187611848115921,-0.5459604263305664,-0.6255255341529846,18.920277099609375
1765999940175746000,20.14774609375,-0.1220965981483459,-0.0461202897131443,-0.5936078429222107,18.939056640625
1765999940194525400,20.166525390625,-0.0135153830051422,0.1336266696453094,-0.5432115197181702,18.9578359375
1765999940222694700,20.194694580078124,-0.1231656074523925,-0.0361937396228313,-0.467006117105484,18.986005126953124
1765999940241474300,20.213474365234376,-0.1561523079872131,-0.1000291109085083,-0.3995055556297302,19.004784912109375
1765999940260253700,20.232253662109372,-0.109573870897293,-0.0485637485980987,-0.3674351572990417,19.02356420898437
1765999940279033000,20.251033203125,-0.0293978676199913,-0.044287696480751,-0.3547597229480743,19.04234375
1765999940297812500,20.2698125,0.0306195970624685,-0.0801760032773017,-0.3116937577724457,19.061123046875
1765999940316592000,20.288592041015622,0.0749072954058647,-0.1788306683301925,-0.2619082629680633,19.079902587890622
1765999940335371500,20.30737158203125,0.1098792999982833,-0.3042106628417969,-0.2203694730997085,19.09868212890625
1765999940354151000,20.32615087890625,0.107283130288124,-0.3466657698154449,-0.2159406989812851,19.11746142578125
1765999940382320000,20.35432006835937,0.0998000353574752,-0.2948949635028839,-0.1713475733995437,19.14563061523437
1765999940401099800,20.373099853515622,0.0778089016675949,-0.2412915825843811,-0.1455385386943817,19.164410400390622
1765999940419879200,20.391879150390626,0.0295505840331316,-0.2047924101352691,-0.1423314958810806,19.183189697265625
1765999940438658600,20.410658447265625,-0.017791436985135,-0.1870773434638977,-0.1524107605218887,19.201968994140625
1765999940457438200,20.42943823242188,-0.064828023314476,-0.1820377111434936,-0.1641699075698852,19.22074877929688
1765999940476217600,20.44821752929688,-0.0735328495502471,-0.1948658674955368,-0.1682932525873184,19.23952807617188
1765999940494997000,20.4669970703125,-0.0562759190797805,-0.1913533955812454,-0.1792888194322586,19.2583076171875
1765999940513776600,20.485776611328124,-0.0297033004462718,-0.1872300505638122,-0.1866191923618316,19.277087158203123
1765999940532556000,20.50455615234375,-0.0124463699758052,-0.1931859850883484,-0.1815795600414276,19.29586669921875
1765999940551335700,20.52333569335937,0.011224640533328,-0.1861610412597656,-0.1742491722106933,19.31464624023437
1765999940570115000,20.54211499023437,0.0355065166950225,-0.1569922417402267,-0.1635590493679046,19.33342553710937
1765999940598284300,20.5702841796875,0.0912479236721992,-0.1082757785916328,-0.13423752784729,19.3615947265625
1765999940617063700,20.589063720703123,0.0952185466885566,-0.1180496215820312,-0.1437059342861175,19.380374267578123
1765999940635843000,20.607843017578126,0.0574976466596126,-0.1585194170475006,-0.1779143661260604,19.399153564453126
1765999940654622700,20.62662280273437,0.0168751403689384,-0.2070831656455993,-0.2029598206281662,19.41793334960937
1765999940673402000,20.64540209960937,-0.0135153830051422,-0.2657261788845062,-0.2197585999965667,19.43671264648437
1765999940701571300,20.6735712890625,-0.041767880320549,-0.2918406426906585,-0.2263254076242447,19.4648818359375
1765999940720350700,20.692350830078126,-0.0271071251481771,-0.2904661893844604,-0.1870773434638977,19.483661376953126
1765999940739130400,20.71113037109375,-0.0180968698114156,-0.314748078584671,-0.1514944583177566,19.502440917968748
1765999940757909800,20.72990966796875,-0.0350483655929565,-0.3129154741764068,-0.1191186308860778,19.52122021484375
1765999940776689200,20.748689208984374,-0.067118763923645,-0.296269416809082,-0.0827721804380416,19.539999755859373
1765999940795468800,20.76746875,-0.0944549664855003,-0.2197585999965667,-0.0490218997001647,19.558779296875
1765999940814248200,20.786248291015625,-0.1023962050676345,-0.1243109852075576,-0.009315688163042,19.577558837890624
1765999940833027600,20.805027587890624,-0.0939968153834343,-0.0760526657104492,0.0358883067965507,19.596338134765624
1765999940851807200,20.82380712890625,-0.0917060747742652,-0.0687222853302955,0.0842993408441543,19.61511767578125
1765999940870586600,20.842586669921875,-0.0755181610584259,-0.0441349819302558,0.1542433500289917,19.633897216796875
1765999940889366000,20.861365966796875,-0.0206930451095104,-0.019700389355421,0.2367101013660431,19.652676513671874
1765999940908145700,20.88014575195313,0.0581085123121738,-0.0071776611730456,0.3229947388172149,19.67145629882813
1765999940926925000,20.89892504882813,0.1611919403076172,-0.0733037739992141,0.4405862092971802,19.69023559570313
1765999940945704400,20.917704345703125,0.2917642891407013,-0.1773035079240799,0.5861247777938843,19.709014892578125
1765999940964484000,20.936484130859377,0.4800633490085602,-0.2753472924232483,0.7837395071983337,19.727794677734376
1765999940983263500,20.955263427734376,0.5755109786987305,-0.481819599866867,0.988990068435669,19.746573974609376
1765999941002043000,20.97404296875,0.5851321220397949,-0.523969292640686,1.1242966651916504,19.765353515624998
1765999941020822500,20.992822509765624,0.549091100692749,-0.4673115611076355,1.2089014053344729,19.784133056640623
1765999941039602000,21.011601806640623,0.5084685683250427,-0.3246746361255646,1.211802959442139,19.802912353515623
1765999941058381300,21.03038134765625,0.4473820924758911,-0.2229656428098678,1.0876446962356567,19.82169189453125
1765999941077161000,21.049160888671874,0.3655261993408203,-0.3352120518684387,0.8211549520492554,19.840471435546874
1765999941095940400,21.0679404296875,0.2008981555700302,-0.4931205809116363,0.4276053309440613,19.8592509765625
1765999941114720000,21.086719970703125,0.0800996422767639,-0.5897899270057678,0.0676532760262489,19.878030517578125
1765999941133499400,21.10549951171875,-0.1019380614161491,-0.6267472505569458,-0.2829830944538116,19.89681005859375
1765999941152278800,21.12427880859375,-0.2158643454313278,-0.6104066371917725,-0.8359684348106384,19.91558935546875
1765999941171058400,21.143058349609376,-0.2054796367883682,-0.6221657991409302,-1.701105713844299,19.934368896484376
1765999941189837800,21.161837890625,-0.116751529276371,-1.1357502937316897,-2.726747751235962,19.9531484375
1765999941208617200,21.1806171875,0.0040469793602824,-1.9918773174285889,-3.78568172454834,19.971927734375
1765999941236786400,21.208786376953125,-0.3200167715549469,-3.138317823410034,-3.9445066452026367,20.000096923828124
1765999941255566000,21.227566162109376,-0.3294851779937744,-3.064708709716797,-3.467879295349121,20.018876708984376
1765999941274345500,21.246345458984376,-0.2903898358345032,-1.8889466524124143,-3.956265687942505,20.037656005859375
1765999941293124900,21.26512475585937,0.211130142211914,-0.5581777095794678,-3.5837910175323486,20.05643530273437
1765999941311904500,21.283904541015627,0.737084686756134,0.6044507026672363,-2.637561321258545,20.075215087890626
1765999941340073700,21.31207373046875,0.4395935535430908,0.9260709881782532,-1.2802199125289917,20.10338427734375
1765999941358853000,21.33085302734375,0.5032762289047241,0.4192059636116028,-0.4363101720809936,20.12216357421875
1765999941377632500,21.34963256835937,0.5991820096969604,0.1336266696453094,0.2837466895580292,20.14094311523437
1765999941396412200,21.368412109375,0.5852848291397095,0.3845393657684326,1.0045671463012695,20.15972265625
1765999941415191600,21.387191650390623,0.6252964735031128,0.8434515595436096,1.6514729261398315,20.178502197265622
1765999941433971000,21.405970947265622,0.6758455038070679,1.3642138242721558,2.16536283493042,20.197281494140622
1765999941452750600,21.42475048828125,0.571234941482544,1.835954070091248,2.492786407470703,20.21606103515625
1765999941471530000,21.443530029296877,0.2867246568202972,2.0208933353424072,2.6334381103515625,20.234840576171877
1765999941499699200,21.47169921875,-0.1004109010100364,1.9827144145965576,2.60732364654541,20.263009765625
