time,seconds_elapsed,z,y,x,t
1765999934382281500,14.354281494140626,0.0891098976135253,-0.0268780495971441,0.0152716198936104,13.145592041015625
1765999934401060900,14.373060791015623,0.1193477064371109,0.5980366468429565,-0.0038179049734026,13.164371337890623
1765999934419840300,14.39184033203125,-0.0072540193796157,1.1684316396713257,-0.0994182452559471,13.18315087890625
1765999934438619600,14.41061962890625,0.1776852905750274,0.822834849357605,-0.0810922980308532,13.20193017578125
1765999934457399300,14.4293994140625,-0.0755181610584259,0.72173672914505,-0.1104138121008873,13.2207099609375
1765999934476178700,14.4481787109375,-0.2995528280735016,0.1660024970769882,-0.0114537142217159,13.2394892578125
1765999934494958000,14.4669580078125,-0.4369973838329315,-0.0192422401160001,0.0401643589138984,13.2582685546875
1765999934523127300,14.495127197265624,-0.9267582297325134,0.2985601723194122,0.0664315447211265,13.286437744140624
1765999934541906700,14.51390673828125,-0.639804482460022,0.939662754535675,-0.0255036037415266,13.30521728515625
1765999934560686300,14.532686279296875,-0.0765871703624725,1.027169108390808,-0.0233655776828527,13.323996826171875
1765999934579465700,14.5514658203125,0.0753654390573501,0.6452259421348572,0.0641408041119575,13.342776367187499
1765999934598245000,14.5702451171875,0.1373682171106338,-0.0566577091813087,0.1455385386943817,13.3615556640625
1765999934617024500,14.5890244140625,0.2224311381578445,-0.3414734005928039,0.1226311028003692,13.3803349609375
1765999934635804200,14.60780419921875,0.3534616231918335,-0.5125155448913574,0.1218675225973129,13.39911474609375
1765999934654583600,14.62658349609375,0.6555342674255371,-0.7722858190536499,0.1580612659454345,13.417894042968749
1765999934673363000,14.645363037109377,0.8612430095672607,-0.9616538882255554,0.217773288488388,13.436673583984376
1765999934692142300,14.664142333984374,0.7076104879379272,-0.8713986277580261,0.2542724609375,13.455452880859374
1765999934710921700,14.682921630859376,0.1889862865209579,-0.869566023349762,0.1513417512178421,13.474232177734375
1765999934729701400,14.701701416015624,-0.1036179363727569,-0.4732674956321716,0.0783434063196182,13.493011962890623
1765999934748480800,14.720480712890623,0.1033125072717666,0.0717766135931015,0.0882699638605117,13.511791259765623
1765999934767260200,14.73926025390625,0.5941423773765564,0.0813977345824241,0.0844520553946495,13.53057080078125
1765999934786039600,14.75803955078125,0.8401681184768677,0.2689332067966461,0.1351538300514221,13.54935009765625
1765999934804819200,14.776819091796876,0.6856193542480469,0.4870119392871856,0.1356119811534881,13.568129638671875
1765999934823598600,14.7955986328125,0.2648862302303314,0.4570795595645904,0.0543669648468494,13.586909179687499
1765999934842378000,14.8143779296875,0.2870301008224487,0.2895499169826507,0.0626136362552642,13.6056884765625
1765999934861157400,14.833157470703124,0.4811323583126068,0.2079994529485702,0.0697913020849227,13.624468017578124
1765999934879937000,14.85193701171875,0.6352230310440063,0.2722929716110229,0.085826501250267,13.64324755859375
1765999934898716400,14.87071630859375,0.6220894455909729,0.3356702029705047,0.0806341543793678,13.66202685546875
1765999934917495800,14.889495849609377,0.4318050444126129,0.2539670467376709,0.0626136362552642,13.680806396484376
1765999934936275200,14.908275146484376,0.2349538654088974,-0.0870482325553894,0.0267253331840038,13.699585693359376
1765999934955054600,14.9270546875,0.2067013680934906,-0.2412915825843811,0.033902995288372,13.718365234375
1765999934973834200,14.945834228515626,0.2864192128181457,-0.2351829409599304,0.0488691814243793,13.737144775390625
1765999934992613600,14.964613525390623,0.1912770271301269,-0.337350070476532,0.0723874792456626,13.755924072265623
1765999935011393000,14.98339306640625,0.0956766977906227,-0.2209803313016891,0.0656679645180702,13.77470361328125
1765999935030172400,15.00217236328125,0.0055741411633789,-0.1020144149661064,0.0641408041119575,13.79348291015625
1765999935048952000,15.0209521484375,0.0061850058846175,0.0229074284434318,0.0604756139218807,13.8122626953125
1765999935067731500,15.0397314453125,0.0811686590313911,0.0038179049734026,0.0397062115371227,13.8310419921875
1765999935086510800,15.0585107421875,0.1975383907556533,-0.3402516841888428,0.0038179049734026,13.8498212890625
1765999935105290200,15.077290283203125,0.1851683855056762,-0.5768090486526489,-0.0322231166064739,13.868600830078124
1765999935124070000,15.09606982421875,0.1181259751319885,-0.5412262082099915,-0.0487164668738842,13.88738037109375
1765999935142849300,15.114849365234376,0.1269835233688354,-0.277790755033493,-0.0174096468836069,13.906159912109375
1765999935161628700,15.133628662109375,0.117209680378437,-0.0154243353754282,0.0087048234418034,13.924939208984375
1765999935180408300,15.152408203125,0.0005345066892914,0.0597120337188243,0.0174096468836069,13.94371875
1765999935199187700,15.171187744140624,-0.1164461001753807,0.0638353675603866,0.0164933484047651,13.962498291015624
1765999935217967000,15.189967041015626,-0.0898734778165817,0.0923933014273643,-0.0042760535143315,13.981277587890625
1765999935236746500,15.20874658203125,-0.0895680487155914,0.0661261156201362,-0.0111482823267579,14.00005712890625
1765999935255526100,15.227526123046877,-0.2604574561119079,0.2539670467376709,-0.044287696480751,14.018836669921876
1765999935274305500,15.246305419921876,-0.2115882933139801,0.1936441361904144,0.0077885258942842,14.037615966796876
1765999935293085000,15.2650849609375,-0.0666606202721595,0.0928514450788497,0.1359174102544784,14.0563955078125
1765999935311864300,15.2838642578125,-0.0454330667853355,0.0045814858749508,0.1449276655912399,14.0751748046875
1765999935330643700,15.302643798828123,0.0535270273685455,-0.1742491722106933,0.2163988500833511,14.093954345703123
1765999935349423400,15.32142333984375,0.3052033185958862,-0.1252272725105285,0.4390590488910675,14.11273388671875
1765999935368202800,15.34020263671875,0.3253618478775024,-0.0424551032483577,0.5884155035018921,14.13151318359375
1765999935386982100,15.358982177734376,0.2138790339231491,-0.0282524954527616,0.8100066781044006,14.150292724609375
1765999935405761500,15.377761474609375,0.3137554228305816,0.0635299384593963,1.1548398733139038,14.169072021484375
1765999935424541200,15.396541259765623,0.5646681189537048,0.2956585586071014,1.4399609565734863,14.187851806640623
1765999935452710400,15.42471044921875,0.7581595778465271,0.57008957862854,1.6531528234481812,14.21602099609375
1765999935471489800,15.44348974609375,0.8859829902648926,0.5986474752426147,1.690262794494629,14.23480029296875
1765999935490269200,15.462269287109375,0.9421825408935548,0.4389063417911529,1.6116139888763428,14.253579833984375
1765999935509048600,15.481048583984377,0.8804852366447449,0.096211202442646,1.4605777263641355,14.272359130859376
1765999935527828200,15.499828125,0.8061124086380005,-0.1791360974311828,1.2405136823654177,14.291138671875
1765999935555997400,15.52799755859375,0.667904257774353,-0.674700140953064,0.813060998916626,14.31930810546875
1765999935574776800,15.54677685546875,0.5104538798332214,-1.0192278623580933,0.5803215503692627,14.33808740234375
1765999935593556200,15.56555615234375,0.3447568118572235,-1.1556034088134766,0.3761399984359741,14.356866699218749
1765999935612335600,15.584335693359376,0.2380081862211227,-1.1177297830581665,0.1916588246822357,14.375646240234376
1765999935631115300,15.603115234375,0.2225838601589203,-0.9095776677131652,0.0497854799032211,14.39442578125
1765999935649894700,15.621894775390626,0.2402989268302917,-0.776103675365448,-0.0560468435287475,14.413205322265625
1765999935668674000,15.640674072265623,0.2028834670782089,-0.906217873096466,-0.1786779463291168,14.431984619140623
1765999935687453400,15.659453369140625,0.1150716543197631,-0.8568905591964722,-0.4596757590770721,14.450763916015624
1765999935706233000,15.678233154296874,-0.2386190593242645,-0.1722638607025146,-1.0610721111297607,14.469543701171874
1765999935725012500,15.697012451171876,-0.2784779667854309,-0.3352120518684387,-0.7599157691001892,14.488322998046876
1765999935743791900,15.7157919921875,0.0490982569754123,-0.7620537877082825,-0.2922987937927246,14.5071025390625
1765999935762571300,15.7345712890625,0.1992182731628418,-0.5093085169792175,0.0120645789429545,14.525881835937499
1765999935781351000,15.753350830078125,0.2451858520507812,-0.1560759544372558,-0.1779143661260604,14.544661376953124
1765999935800130300,15.77213037109375,0.1355356276035308,-0.1537852138280868,-0.2791652083396911,14.56344091796875
1765999935818909700,15.79090966796875,0.0297033004462718,-0.3824013471603393,-0.2803869247436523,14.58222021484375
1765999935837689000,15.809689208984375,-0.0793360620737075,-0.4592176079750061,-0.2933678030967712,14.600999755859375
1765999935856468700,15.82846875,-0.1410334110260009,-0.4114174246788025,-0.3178023993968963,14.619779296875
1765999935875248000,15.847248046875,-0.1492800861597061,-0.319329559803009,-0.2641990184783935,14.63855859375
1765999935894027500,15.866027587890626,-0.1308014243841171,-0.236251950263977,-0.2275471240282058,14.657338134765626
1765999935912807000,15.884806884765624,-0.1653152853250503,-0.2006690800189972,-0.2038761228322982,14.676117431640623
1765999935931586600,15.903586669921877,-0.1866955459117889,-0.1327103674411773,-0.185092031955719,14.694897216796877
1765999935950366000,15.922365966796876,-0.241062507033348,0.0070249447599053,-0.1562286615371704,14.713676513671876
1765999935969145300,15.941145263671874,-0.320933073759079,0.1388190239667892,-0.1354592591524124,14.732455810546874
1765999935987925000,15.959925048828126,-0.3716348707675934,0.2286161482334137,-0.129656046628952,14.751235595703125
1765999936006704400,15.978704345703123,-0.3823249936103821,0.1658497899770736,-0.1238528341054916,14.770014892578123
1765999936025483800,15.99748388671875,-0.3646099269390106,-0.0813977345824241,-0.1218675225973129,14.78879443359375
1765999936044263200,16.01626318359375,-0.2859610617160797,-0.3356702029705047,-0.1566868126392364,14.80757373046875
1765999936063042600,16.03504248046875,-0.1611919403076172,-0.5748237371444702,-0.1960875988006591,14.82635302734375
1765999936091211800,16.063211669921873,-0.0455857850611209,-0.8775072693824768,-0.2197585999965667,14.854522216796873
1765999936109991400,16.081991455078125,-0.1080467104911804,-1.0225876569747925,-0.1968511790037155,14.873302001953125
1765999936128770800,16.100770751953124,-0.2271653413772583,-1.3025164604187012,-0.1036942973732948,14.892081298828124
1765999936147550200,16.11955029296875,-0.2723693251609802,-1.6571234464645386,0.0401643589138984,14.91086083984375
1765999936166329600,16.13832958984375,-0.2085339576005935,-1.7316489219665527,0.2791652083396911,14.92964013671875
1765999936185109200,16.157109130859375,0.0064904382452368,-1.423925757408142,0.6325504779815674,14.948419677734375
1765999936203888600,16.175888671875,0.2566395699977875,-0.9222530722618104,1.105207085609436,14.96719921875
1765999936222668000,16.19466796875,0.3493382930755615,-0.2310595959424972,1.628565549850464,14.985978515625
1765999936241447400,16.213447509765626,0.2070067971944809,0.6380482912063599,1.685070514678955,15.004758056640625
1765999936260227000,16.23222705078125,-0.1356883347034454,1.1145228147506714,1.9146028757095337,15.02353759765625
1765999936279006500,16.25100634765625,-0.4437169134616852,1.064737319946289,1.7415754795074463,15.04231689453125
1765999936297785900,16.269785888671876,-0.6616429090499878,0.8451313972473145,1.5360194444656372,15.061096435546876
1765999936316565500,16.2885654296875,-0.8788053393363953,0.4604393243789673,1.320536971092224,15.079875976562501
1765999936335345000,16.307344970703124,-1.0402263402938845,0.0151189034804701,1.0795507431030271,15.098655517578123
1765999936354124300,16.326124267578123,-1.086804747581482,-0.1371391415596008,0.7716749310493469,15.117434814453123
1765999936372903700,16.344903564453126,-1.1109340190887451,0.0010690133785828,0.2988655865192413,15.136214111328126
1765999936391683300,16.363683349609374,-1.1506401300430298,0.0259617529809474,-0.2897026240825653,15.154993896484374
