time,seconds_elapsed,z,y,x,t
1765999947694584000,27.666583984375,-1.519057273864746,2.3985490798950195,1.9231802225112915,26.460242187499997
1765999947713363500,27.685363525390624,-2.2419538497924805,2.1118202209472656,2.1517629623413086,26.479021728515622
1765999947732143000,27.70414306640625,-6.864816665649414,-4.391266345977783,-0.3839160203933716,26.497801269531248
1765999947750922500,27.722922607421875,-4.770541191101074,2.734548568725586,-3.4199016094207764,26.516580810546873
1765999947769702000,27.741701904296875,-3.8879761695861816,-1.3857035636901853,3.129912137985229,26.535360107421873
1765999947788481500,27.7604814453125,1.3328609466552734,0.6049861907958984,2.7465107440948486,26.5541396484375
1765999947807261000,27.77926098632813,-0.8565554618835449,-3.376393318176269,2.6294095516204834,26.572919189453128
1765999947826040600,27.79804052734375,-3.5716021060943604,-0.913471221923828,-1.050217866897583,26.59169873046875
1765999947844820000,27.816820068359377,-5.403916358947754,-0.4672183990478515,-2.140329122543335,26.610478271484375
1765999947863599600,27.835599609375,-4.61923360824585,-2.1447715759277344,-0.9351657032966614,26.629257812499997
1765999947882379000,27.85437890625,-4.965262413024902,-1.6074261665344238,0.558303713798523,26.648037109374997
1765999947901158700,27.87315869140625,-5.211092472076416,-0.90673828125,0.8265758752822876,26.666816894531248
1765999947919938000,27.89193798828125,-5.685060501098633,-0.6737403869628906,0.2930367588996887,26.685596191406248
1765999947948107300,27.920107177734376,-4.869651794433594,-0.7128372192382812,-0.1227433383464813,26.713765380859375
1765999947966887000,27.938886962890624,-4.316856384277344,-0.5708103179931641,-0.2134940773248672,26.732545166015623
1765999947985666300,27.957666259765624,-4.096499443054199,-0.4967412948608398,-0.6201301217079163,26.751324462890622
1765999948004446000,27.976446044921875,-3.4621262550354004,0.0802259445190429,-1.5533974170684814,26.770104248046874
1765999948023225300,27.995225341796875,-3.055129051208496,0.4588918685913086,-1.7918095588684082,26.788883544921873
1765999948042005000,28.0140048828125,-2.8770499229431152,0.5942192077636719,-1.9825693368911743,26.8076630859375
1765999948060784400,28.03278442382813,-2.945076465606689,-0.2496757507324218,-0.6548642516136169,26.826442626953128
1765999948079563800,28.051563720703125,-2.7988944053649902,-0.7325420379638672,1.1241607666015625,26.845221923828124
1765999948098343400,28.070343505859373,-2.200343608856201,-0.1794281005859375,1.0922696590423584,26.86400170898437
1765999948117122800,28.089122802734376,-1.4306011199951172,1.4352378845214844,-0.8671190738677979,26.882781005859375
1765999948135902500,28.10790234375,11.215533256530762,0.6279048919677734,-4.371225357055664,26.901560546874997
1765999948154681900,28.126681884765624,8.31777286529541,4.975126266479492,-12.036584854125977,26.920340087890622
1765999948173461500,28.14546142578125,3.071392059326172,-4.109479904174805,-4.40328311920166,26.939119628906248
1765999948192241000,28.164240966796875,1.3331236839294434,-0.9896116256713868,-1.3895175457000732,26.957899169921873
1765999948211020300,28.183020263671875,-1.3855555057525637,3.0439910888671875,1.326918601989746,26.976678466796873
1765999948229800000,28.20180004882813,1.2068934440612793,1.7677621841430664,6.050095081329346,26.995458251953128
1765999948248579300,28.22057934570313,2.646775484085083,-0.7506208419799805,1.2375385761260986,27.014237548828127
1765999948267359000,28.23935888671875,2.221421718597412,-0.8392543792724609,-1.326887845993042,27.03301708984375
1765999948286138400,28.258138427734377,2.0308985710144043,-0.5125160217285156,0.2120085060596466,27.051796630859375
1765999948304918000,28.27691796875,2.3545868396759038,-0.7811565399169922,0.3982496559619903,27.070576171874997
1765999948323697400,28.295697509765624,1.824091911315918,-0.8972053527832031,0.2603216767311096,27.089355712890622
1765999948342477000,28.31447705078125,1.073908805847168,-0.3396339416503906,0.5487070083618164,27.108135253906248
1765999948361256400,28.33325634765625,0.6761758327484131,0.1655120849609375,0.2010030448436737,27.126914550781247
1765999948380036000,28.3520361328125,0.6284151077270508,-0.1774320602416992,-0.4821300506591797,27.1456943359375
1765999948398815500,28.3708154296875,0.5443944931030273,-0.2631282806396484,-0.5102694630622864,27.1644736328125
1765999948417595000,28.38959497070313,0.4048004150390625,-0.0719251632690429,0.0111810564994812,27.183253173828128
1765999948436374500,28.40837451171875,0.2580134868621826,0.1260652542114257,0.4896348118782043,27.20203271484375
1765999948455154000,28.42715380859375,0.165940523147583,0.3314800262451172,0.5920025706291199,27.22081201171875
1765999948473933600,28.44593359375,-0.1485264301300048,0.4260683059692383,0.3018908500671386,27.239591796874997
1765999948492713000,28.464712890625,-0.4115068912506103,0.3423023223876953,-0.079747200012207,27.25837109375
1765999948511492600,28.48349267578125,-0.6585476398468018,0.1764612197875976,-0.2704715728759765,27.277150878906248
1765999948530272000,28.50227197265625,-0.7797228097915649,0.04168701171875,-0.462419331073761,27.295930175781248
1765999948549051400,28.521051513671875,-0.828762412071228,-0.1389684677124023,-0.5105629563331604,27.314709716796873
1765999948567831000,28.5398310546875,-0.8308920860290527,-0.4176959991455078,-0.4326948523521423,27.3334892578125
1765999948586610400,28.5586103515625,-0.4339525699615478,0.3190927505493164,0.3100471496582031,27.352268554687498
1765999948605390000,28.57739013671875,-0.130688190460205,-0.0217227935791015,-0.1244844198226928,27.37104833984375
1765999948624169500,28.59616943359375,0.0363581180572509,-0.1224308013916015,-0.6150394082069397,27.38982763671875
1765999948642949000,28.61494921875,0.0427162647247314,0.0796422958374023,-0.2575495839118957,27.408607421874997
1765999948661728500,28.633728515625,0.329115629196167,0.066472053527832,-0.0797377824783325,27.427386718749997
1765999948680508200,28.652508056640624,0.5793123245239258,-0.1815443038940429,0.0312157273292541,27.446166259765622
1765999948699287600,28.67128759765625,0.8156728744506836,-0.2603092193603515,-0.039438784122467,27.464945800781248
1765999948718067000,28.69006689453125,0.9498023986816406,-0.1520967483520507,-0.0326998233795166,27.483725097656247
1765999948736846600,28.7088466796875,0.9792943000793456,0.1119813919067382,-0.1589213609695434,27.5025048828125
1765999948755626000,28.7276259765625,0.974590539932251,0.0648269653320312,-0.2281435132026672,27.5212841796875
1765999948774405600,28.746405517578125,0.7730381488800049,0.2007284164428711,-0.6263236403465271,27.540063720703124
1765999948793185000,28.76518505859375,0.8249964714050293,0.5843172073364258,-1.6528923511505127,27.55884326171875
1765999948811964700,28.783964599609376,0.8342721462249756,0.993840217590332,-2.394773483276367,27.577622802734375
1765999948830744000,28.802744140625,1.599280595779419,1.110520362854004,-3.621809482574463,27.596402343749997
1765999948849523700,28.821523681640624,2.544071674346924,0.5838680267333984,-5.273935317993164,27.615181884765622
1765999948868303000,28.84030322265625,2.96501088142395,0.1856546401977539,-6.089476108551025,27.633961425781248
1765999948896472300,28.868472412109377,1.509444236755371,0.052255630493164,-2.915010452270508,27.662130615234375
1765999948915252000,28.887251953125,0.7974646091461182,0.4242534637451172,-1.3442023992538452,27.680910156249997
1765999948934031400,28.90603125,-1.1166772842407229,0.2676057815551758,2.131537914276123,27.699689453125
1765999948952811000,28.92481103515625,-1.8538618087768557,-0.1025266647338867,2.584080219268799,27.718469238281248
1765999948971590400,28.94359033203125,-1.6687734127044678,-0.8209266662597656,1.2595100402832031,27.737248535156247
1765999948990370000,28.9623701171875,-1.701695203781128,-2.422708511352539,0.4019854664802551,27.7560283203125
1765999949009149400,28.9811494140625,-1.1318129301071167,-3.077977180480957,1.6952701807022097,27.7748076171875
1765999949037318700,29.009318603515624,-0.631122350692749,-0.4676685333251953,5.008786201477051,27.802976806640622
1765999949056098300,29.028098388671875,0.2271190881729126,-0.4196996688842773,5.958807468414307,27.821756591796873
1765999949074877700,29.046877685546875,-0.0061412751674652,-0.4832696914672851,4.417001247406006,27.840535888671873
1765999949093657300,29.0656572265625,0.5589748620986938,0.216318130493164,2.3990044593811035,27.8593154296875
1765999949112436700,29.08443676757813,0.6120390892028809,0.9055051803588868,2.247715473175049,27.878094970703128
1765999949131216400,29.10321630859375,-0.7122769355773926,1.8877840042114256,2.313124656677246,27.89687451171875
1765999949149995800,29.121995849609377,-1.8961910009384155,2.4034109115600586,3.0250144004821777,27.915654052734375
1765999949168775200,29.140775146484376,-2.9288699626922607,2.3477048873901367,3.9084720611572266,27.934433349609375
1765999949187554800,29.159554931640624,-7.280947208404541,-4.011951446533203,1.87360954284668,27.953213134765623
1765999949206334200,29.178334228515624,-6.578437328338623,3.5897293090820312,-0.9921314716339112,27.971992431640622
1765999949225113900,29.19711376953125,-1.3603579998016355,2.635639190673828,3.3880627155303955,27.990771972656248
1765999949243893200,29.215893310546875,2.7074551582336426,0.7481670379638672,3.690428495407105,28.009551513671873
1765999949272062500,29.2440625,0.7663965225219727,-1.3742637634277344,-1.900076150894165,28.037720703124997
1765999949290842000,29.262842041015624,-0.214813232421875,0.0141000747680664,-1.4886195659637451,28.056500244140622
1765999949309621500,29.28162158203125,-1.7398998737335205,-0.9064602851867676,-1.5671148300170898,28.075279785156248
1765999949328401200,29.300401123046875,-2.976803779602051,-1.5006990432739258,-1.1826354265213013,28.094059326171873
1765999949347180500,29.3191806640625,-3.656604766845703,-1.1800241470336914,0.4373125433921814,28.1128388671875
1765999949365960200,29.33796020507813,-4.389930725097656,-1.256009578704834,1.3941794633865356,28.131618408203128
1765999949384739600,29.356739501953125,-4.257833003997803,-1.3633155822753906,1.0554747581481934,28.150397705078124
1765999949403519200,29.375519287109373,-4.387565612792969,-1.2260627746582031,0.8728060722351074,28.16917749023437
1765999949422298600,29.394298583984376,-4.78304386138916,-1.2947311401367188,0.0948813557624816,28.187956787109375
1765999949441078300,29.413078369140624,-4.727018356323242,-0.4841032028198242,-1.9362971782684328,28.206736572265623
1765999949459857700,29.431857666015624,-2.8675074577331543,1.260538101196289,-1.7634491920471191,28.225515869140622
1765999949478637000,29.450636962890623,-0.1944621205329895,3.6967544555664062,-1.338485836982727,28.244295166015622
1765999949497416700,29.469416748046875,3.0750560760498047,4.990067481994629,-6.586501598358154,28.263074951171873
1765999949516196000,29.488196044921875,3.4255151748657227,2.386045455932617,-11.519108772277832,28.281854248046873
1765999949534975700,29.50697583007813,1.3694521188735962,-0.1795940399169922,-7.556831836700439,28.300634033203128
1765999949553755100,29.52575512695313,-2.2057132720947266,0.7973804473876953,-3.69840669631958,28.319413330078127
1765999949572534800,29.54453466796875,-3.630181074142456,2.34743881225586,1.5694694519042969,28.33819287109375
1765999949591314200,29.563314208984377,0.348895788192749,-0.2930831909179687,5.163785457611084,28.356972412109375
1765999949610093800,29.58209375,2.246554374694824,-1.5801854133605957,2.779763698577881,28.375751953124997
1765999949628873200,29.600873291015624,3.015946388244629,-0.953993797302246,0.0585931539535522,28.394531494140622
1765999949647652900,29.61965283203125,2.276679277420044,-0.9733734130859376,-1.844721794128418,28.413311035156248
1765999949675822000,29.647822021484377,1.6424310207366943,-0.3922119140625,-1.3224107027053833,28.441480224609375
1765999949694601500,29.6666015625,1.733135223388672,0.2554512023925781,0.6175594329833984,28.460259765624997
1765999949713381000,29.685381103515624,1.951808214187622,0.345768928527832,1.4596706628799438,28.479039306640622
