time,seconds_elapsed,z,y,x,t
1765999924241393000,4.213392822265625,0.8995747566223145,0.3697259128093719,1.8448116779327397,3.004703369140625
1765999924260172300,4.23217236328125,0.7042507529258728,-0.5491674542427063,2.0379977226257324,3.0234829101562495
1765999924278951700,4.25095166015625,0.4504364132881164,-0.6252201199531555,2.185215950012207,3.04226220703125
1765999924297731000,4.26973095703125,0.2079230993986129,-0.1820377111434936,2.2010984420776367,3.0610415039062495
1765999924316510500,4.288510498046875,0.0826958194375038,0.2854265570640564,2.153603792190552,3.079821044921875
1765999924335289900,4.307289794921875,0.0028252496849745,0.616209864616394,2.134514331817627,3.0986003417968746
1765999924354069200,4.3260693359375,-0.0663551837205886,0.6618719696998596,2.091448307037353,3.1173798828125
1765999924372848600,4.3448486328125,-0.0773507505655288,0.4518872201442718,2.042120933532715,3.1361591796874997
1765999924391628000,4.3636279296875,-0.0225256383419036,0.1082757785916328,1.99798595905304,3.1549384765624993
1765999924410407400,4.382407470703125,0.0274125561118125,-0.2325867712497711,1.9735513925552368,3.1737180175781248
1765999924429186800,4.401186767578125,0.0298560168594121,-0.4427242577075958,1.9398010969161987,3.1924973144531243
1765999924447966200,4.41996630859375,-0.0277179889380931,-0.4801397025585174,1.8712315559387207,3.21127685546875
1765999924466745600,4.43874560546875,-0.1153770834207534,-0.3804160356521606,1.757763385772705,3.2300561523437494
1765999924485525000,4.45752490234375,-0.1569158881902694,-0.1464548259973526,1.6262747049331665,3.24883544921875
1765999924504304400,4.476304443359375,-0.1544724255800247,-0.0053450670093297,1.4920371770858765,3.2676149902343745
1765999924523083800,4.495083740234375,-0.150654524564743,0.0616973415017128,1.3628393411636353,3.286394287109375
1765999924541863400,4.513863525390625,-0.1831830739974975,-0.0079412423074245,1.2058470249176023,3.3051740722656247
1765999924570032400,4.542032470703125,-0.2625955045223236,-0.3304778337478637,0.9735657572746276,3.333343017578125
1765999924588811800,4.560811767578125,-0.3702604174613952,-0.4222602844238281,0.8122974634170532,3.3521223144531245
1765999924607591200,4.579591064453125,-0.4837285578250885,-0.3326158821582794,0.6369792222976685,3.370901611328125
1765999924626370600,4.59837060546875,-0.5038870573043823,-0.1000291109085083,0.4699077308177948,3.3896811523437496
1765999924645150000,4.61714990234375,-0.4803687930107116,0.2809978127479553,0.264504462480545,3.40846044921875
1765999924663929300,4.635929443359375,-0.5220603346824646,0.7661771774291992,-0.1053741723299026,3.4272399902343746
1765999924682708700,4.654708740234375,-0.6872992515563965,1.4504984617233276,-0.8767436742782593,3.446019287109375
1765999924701488000,4.673488037109375,-0.8907172083854675,0.99647319316864,-1.2177588939666748,3.4647985839843747
1765999924720267500,4.692267578125,-0.5067886710166931,0.3964512348175049,-1.0645846128463743,3.4835781249999993
1765999924739047000,4.711046875,0.1802814751863479,-0.4961749315261841,-0.9135482907295228,3.5023574218749998
1765999924757826600,4.72982666015625,-0.0093920463696122,-1.1740821599960327,-0.7625119686126709,3.5211372070312494
1765999924776605700,4.748605712890625,-0.3441459536552429,-0.9960150122642516,-0.5549706816673279,3.539916259765625
1765999924795385300,4.76738525390625,-0.4339430630207062,-0.3610210716724396,-0.4175260663032532,3.5586958007812495
1765999924823554300,4.79555419921875,-0.2906952798366546,0.5371028780937195,-0.4202749729156494,3.5868647460937497
1765999924842333700,4.814333740234375,-0.1750891208648681,0.4990765154361725,-0.4579958617687225,3.6056442871093743
1765999924861113000,4.833113037109375,-0.1960112303495407,0.0242818742990493,-0.4546361267566681,3.624423583984375
1765999924879892500,4.851892578125,-0.1870009750127792,-0.4631882309913635,-0.3956876695156097,3.6432031249999994
1765999924908061700,4.880061767578125,-0.1975383907556533,-0.5542070865631104,-0.30085089802742,3.6713723144531247
1765999924926841000,4.898841064453125,-0.2120464295148849,-0.2452622056007385,-0.2461785078048706,3.6901516113281243
1765999924945620500,4.917620361328125,-0.1353829056024551,0.1747073233127594,-0.1660024970769882,3.7089309082031248
1765999924964399900,4.93639990234375,0.03138317912817,0.2747364342212677,0.0250454563647508,3.7277104492187494
1765999924983179300,4.95517919921875,0.1407279670238495,0.3220784664154053,0.2562577724456787,3.74648974609375
1765999925001958700,4.973958740234375,0.2651916742324829,0.0565049909055233,0.4668534100055694,3.7652692871093745
1765999925020738000,4.992738037109375,0.4397462904453277,-0.1510363221168518,0.6618719696998596,3.784048583984375
1765999925039517400,5.011517333984375,0.5464949011802673,-0.1314886510372162,0.8390227556228638,3.8028278808593745
1765999925058296800,5.030296875,0.5851321220397949,-0.0148134706541895,0.9862411618232728,3.821607421875
1765999925077076200,5.049076171875,0.5950586795806885,0.2093739062547683,1.082452416419983,3.8403867187499996
1765999925095855600,5.067855712890625,0.6242274641990662,0.4343248605728149,1.072983980178833,3.859166259765625
1765999925114635000,5.086635009765625,0.7610611319541931,0.1656970679759979,0.8924734592437744,3.8779455566406247
1765999925133414400,5.105414306640625,0.9838740825653076,-0.485942929983139,0.4827359020709991,3.8967248535156243
1765999925152194000,5.124194091796875,1.1404081583023071,-0.963333785533905,-0.143553227186203,3.915504638671875
1765999925170973400,5.142973388671875,0.9493602514266968,-1.2634210586547852,-0.8773545622825623,3.9342839355468744
1765999925189752800,5.1617529296875,0.6297252178192139,-1.5071561336517334,-1.669646143913269,3.9530634765625
1765999925208532200,5.1805322265625,0.3317759335041046,-1.4184280633926392,-2.3929100036621094,3.9718427734374995
1765999925227311600,5.1993115234375,-0.1541669964790344,-1.2704460620880127,-2.9216134548187256,3.9906220703125
1765999925246091000,5.218091064453125,-0.6700422763824463,-1.3150391578674316,-3.323715209960937,4.009401611328125
1765999925264870400,5.236870361328125,-1.059163212776184,-1.1910336017608645,-3.532020092010498,4.028180908203125
1765999925283649800,5.25564990234375,-1.3001493215560913,-0.5830704569816589,-3.6780169010162354,4.04696044921875
1765999925302429200,5.27442919921875,-1.5150209665298462,-0.6554579138755798,-2.9379541873931885,4.06573974609375
1765999925321208600,5.29320849609375,-2.211406946182251,1.7808235883712769,-1.9074252843856807,4.08451904296875
1765999925339988000,5.311988037109375,-1.5199079513549805,4.873631954193115,-2.7230825424194336,4.103298583984374
1765999925358767400,5.330767333984375,-1.065882682800293,4.352106094360352,-2.3953535556793213,4.122077880859375
1765999925386936600,5.3589365234375,-1.7857868671417236,3.1641268730163574,-1.917962670326233,4.1502470703125
1765999925405716000,5.377716064453125,-1.0539708137512207,2.120922565460205,-1.5955787897109983,4.169026611328125
1765999925424495400,5.396495361328125,-0.4014145135879516,0.8697187304496765,-1.5409064292907717,4.187805908203124
1765999925443274800,5.415274658203125,-0.0352010838687419,0.2461785078048706,-1.386357665061951,4.206585205078125
1765999925471443700,5.443443603515625,0.516257107257843,-0.2579376399517059,-1.0494656562805176,4.234754150390625
1765999925490223000,5.46222314453125,0.6660717129707336,-0.5835285782814026,-0.7680097222328186,4.25353369140625
1765999925509002500,5.48100244140625,0.7216603755950928,-0.6585122346878052,-0.4450149834156036,4.27231298828125
1765999925527782000,5.499781982421875,0.8317687511444092,-0.4134027361869812,-0.1272125840187072,4.291092529296875
1765999925546561500,5.5185615234375,0.9253838062286376,0.0882699638605117,0.1490510106086731,4.309872070312499
1765999925565341000,5.5373408203125,0.9120974540710448,0.6123919486999512,0.3946186602115631,4.3286513671875
1765999925584120300,5.556120361328125,0.8769727349281311,1.001665472984314,0.5989528894424438,4.347430908203124
1765999925602899700,5.574899658203125,0.8734602928161621,1.13712477684021,0.7562506198883057,4.366210205078125
1765999925621679000,5.59367919921875,0.8934661149978638,0.9556979537010192,0.914770007133484,4.3849897460937495
1765999925640458500,5.61245849609375,0.9382119178771972,0.6488910913467407,1.0777181386947632,4.40376904296875
1765999925659238000,5.63123779296875,1.011973857879639,0.3297142684459686,1.215162754058838,4.4225483398437495
1765999925678017300,5.650017333984375,1.0370193719863892,0.1137735620141029,1.3697115182876587,4.441327880859375
1765999925696796700,5.668796630859375,1.0208313465118408,0.0717766135931015,1.5381574630737305,4.460107177734375
1765999925715576000,5.687576171875,0.9852485060691832,0.1521053314208984,1.705687165260315,4.47888671875
1765999925734355500,5.70635546875,0.9313397407531738,0.2542724609375,1.8545855283737185,4.497666015625
1765999925753134800,5.725134765625,0.8960622549057007,0.3590357601642608,1.992182731628418,4.516445312499999
1765999925771914200,5.743914306640625,0.8748347163200378,0.4137081801891327,2.10045862197876,4.535224853515625
1765999925790693600,5.762693603515625,0.847956657409668,0.4218021333217621,2.156047344207764,4.554004150390624
1765999925809473000,5.78147314453125,0.826423704624176,0.3944659233093261,2.161850452423096,4.57278369140625
1765999925828252400,5.80025244140625,0.7995456457138062,0.3585776388645172,2.142455577850342,4.591562988281249
1765999925847031800,5.81903173828125,0.7575486898422241,0.329103410243988,2.1050400733947754,4.61034228515625
1765999925865811200,5.837811279296875,0.7051670551300049,0.3306305706501007,2.047160625457764,4.6291218261718745
1765999925884590600,5.856590576171875,0.6555342674255371,0.2952004075050354,1.9454516172409055,4.647901123046875
1765999925903370200,5.875370361328125,0.6181188225746155,0.1798996776342392,1.804800033569336,4.666680908203125
1765999925922149600,5.894149658203125,0.5782598853111267,-0.0887281075119972,1.651320219039917,4.685460205078125
1765999925940929000,5.912928955078125,0.5329031348228455,-0.4483747482299804,1.497840404510498,4.704239501953125
1765999925959708400,5.93170849609375,0.4889208972454071,-0.7380773425102234,1.3211477994918823,4.723019042968749
1765999925978487800,5.95048779296875,0.4438696205615997,-0.9784526824951172,1.1478148698806765,4.74179833984375
1765999925997267200,5.96926708984375,0.373162031173706,-1.1785109043121338,0.943175196647644,4.760577636718749
1765999926025436200,5.997436279296875,0.248087465763092,-1.4953969717025757,0.5997164845466614,4.788746826171875
1765999926044215600,6.016215576171875,0.1396589577198028,-1.779601812362671,0.42088583111763,4.807526123046875
1765999926062995200,6.0349951171875,-0.0225256383419036,-1.976911187171936,0.1785252392292022,4.8263056640625
1765999926081774600,6.053774658203125,-0.2584721744060516,-1.9552254676818848,-0.0568104237318038,4.845085205078124
1765999926100554000,6.072553955078125,-0.4518108665943146,-1.7792963981628418,-0.2886336147785187,4.863864501953125
1765999926119333400,6.09133349609375,-0.586048424243927,-0.753043532371521,-0.8318451046943665,4.882644042968749
1765999926138112800,6.11011279296875,-0.667904257774353,0.7003564834594727,-1.5276200771331787,4.90142333984375
1765999926156892200,6.12889208984375,-0.6694314479827881,1.1864521503448486,-1.3776527643203735,4.9202026367187495
1765999926185061000,6.15706103515625,-0.1266780793666839,0.5358811020851135,-0.9395100474357604,4.94837158203125
1765999926203840800,6.1758408203125,-0.3415497839450836,-0.0166460648179054,-0.425925463438034,4.967151367187499
1765999926222620200,6.1946201171875,-0.1521816849708557,-0.3718639314174652,-0.1757763475179672,4.9859306640625
1765999926241399600,6.213399658203125,0.067576915025711,-0.4172206521034241,-0.0212275516241788,5.0047102050781245
1765999926260179000,6.232178955078125,0.2239582985639572,-0.3368919193744659,0.0345138609409332,5.023489501953125
1765999926278958300,6.250958251953125,0.3204749226570129,-0.2258672565221786,0.1015562713146209,5.0422687988281245
