time,seconds_elapsed,z,y,x,t
1765999925264870400,5.236870361328125,-1.059163212776184,-1.1910336017608645,-3.532020092010498,4.028180908203125
1765999925283649800,5.25564990234375,-1.3001493215560913,-0.5830704569816589,-3.6780169010162354,4.04696044921875
1765999925302429200,5.27442919921875,-1.5150209665298462,-0.6554579138755798,-2.9379541873931885,4.06573974609375
1765999925321208600,5.29320849609375,-2.211406946182251,1.7808235883712769,-1.9074252843856807,4.08451904296875
1765999925339988000,5.311988037109375,-1.5199079513549805,4.873631954193115,-2.7230825424194336,4.103298583984374
1765999925358767400,5.330767333984375,-1.065882682800293,4.352106094360352,-2.3953535556793213,4.122077880859375
1765999925386936600,5.3589365234375,-1.7857868671417236,3.1641268730163574,-1.917962670326233,4.1502470703125
1765999925405716000,5.377716064453125,-1.0539708137512207,2.120922565460205,-1.5955787897109983,4.169026611328125
1765999925424495400,5.396495361328125,-0.4014145135879516,0.8697187304496765,-1.5409064292907717,4.187805908203124
1765999925443274800,5.415274658203125,-0.0352010838687419,0.2461785078048706,-1.386357665061951,4.206585205078125
1765999925471443700,5.443443603515625,0.516257107257843,-0.2579376399517059,-1.0494656562805176,4.234754150390625
1765999925490223000,5.46222314453125,0.6660717129707336,-0.5835285782814026,-0.7680097222328186,4.25353369140625
1765999925509002500,5.48100244140625,0.7216603755950928,-0.6585122346878052,-0.4450149834156036,4.27231298828125
1765999925527782000,5.499781982421875,0.8317687511444092,-0.4134027361869812,-0.1272125840187072,4.291092529296875
1765999925546561500,5.5185615234375,0.9253838062286376,0.0882699638605117,0.1490510106086731,4.309872070312499
1765999925565341000,5.5373408203125,0.9120974540710448,0.6123919486999512,0.3946186602115631,4.3286513671875
1765999925584120300,5.556120361328125,0.8769727349281311,1.001665472984314,0.5989528894424438,4.347430908203124
1765999925602899700,5.574899658203125,0.8734602928161621,1.13712477684021,0.7562506198883057,4.366210205078125
1765999925621679000,5.59367919921875,0.8934661149978638,0.9556979537010192,0.914770007133484,4.3849897460937495
1765999925640458500,5.61245849609375,0.9382119178771972,0.6488910913467407,1.0777181386947632,4.40376904296875
1765999925659238000,5.63123779296875,1.011973857879639,0.3297142684459686,1.215162754058838,4.4225483398437495
1765999925678017300,5.650017333984375,1.0370193719863892,0.1137735620141029,1.3697115182876587,4.441327880859375
1765999925696796700,5.668796630859375,1.0208313465118408,0.0717766135931015,1.5381574630737305,4.460107177734375
1765999925715576000,5.687576171875,0.9852485060691832,0.1521053314208984,1.705687165260315,4.47888671875
1765999925734355500,5.70635546875,0.9313397407531738,0.2542724609375,1.8545855283737185,4.497666015625
1765999925753134800,5.725134765625,0.8960622549057007,0.3590357601642608,1.992182731628418,4.516445312499999
1765999925771914200,5.743914306640625,0.8748347163200378,0.4137081801891327,2.10045862197876,4.535224853515625
1765999925790693600,5.762693603515625,0.847956657409668,0.4218021333217621,2.156047344207764,4.554004150390624
1765999925809473000,5.78147314453125,0.826423704624176,0.3944659233093261,2.161850452423096,4.57278369140625
1765999925828252400,5.80025244140625,0.7995456457138062,0.3585776388645172,2.142455577850342,4.591562988281249
1765999925847031800,5.81903173828125,0.7575486898422241,0.329103410243988,2.1050400733947754,4.61034228515625
1765999925865811200,5.837811279296875,0.7051670551300049,0.3306305706501007,2.047160625457764,4.6291218261718745
1765999925884590600,5.856590576171875,0.6555342674255371,0.2952004075050354,1.9454516172409055,4.647901123046875
1765999925903370200,5.875370361328125,0.6181188225746155,0.1798996776342392,1.804800033569336,4.666680908203125
1765999925922149600,5.894149658203125,0.5782598853111267,-0.0887281075119972,1.651320219039917,4.685460205078125
1765999925940929000,5.912928955078125,0.5329031348228455,-0.4483747482299804,1.497840404510498,4.704239501953125
1765999925959708400,5.93170849609375,0.4889208972454071,-0.7380773425102234,1.3211477994918823,4.723019042968749
1765999925978487800,5.95048779296875,0.4438696205615997,-0.9784526824951172,1.1478148698806765,4.74179833984375
1765999925997267200,5.96926708984375,0.373162031173706,-1.1785109043121338,0.943175196647644,4.760577636718749
1765999926025436200,5.997436279296875,0.248087465763092,-1.4953969717025757,0.5997164845466614,4.788746826171875
1765999926044215600,6.016215576171875,0.1396589577198028,-1.779601812362671,0.42088583111763,4.807526123046875
1765999926062995200,6.0349951171875,-0.0225256383419036,-1.976911187171936,0.1785252392292022,4.8263056640625
1765999926081774600,6.053774658203125,-0.2584721744060516,-1.9552254676818848,-0.0568104237318038,4.845085205078124
1765999926100554000,6.072553955078125,-0.4518108665943146,-1.7792963981628418,-0.2886336147785187,4.863864501953125
1765999926119333400,6.09133349609375,-0.586048424243927,-0.753043532371521,-0.8318451046943665,4.882644042968749
1765999926138112800,6.11011279296875,-0.667904257774353,0.7003564834594727,-1.5276200771331787,4.90142333984375
1765999926156892200,6.12889208984375,-0.6694314479827881,1.1864521503448486,-1.3776527643203735,4.9202026367187495
1765999926185061000,6.15706103515625,-0.1266780793666839,0.5358811020851135,-0.9395100474357604,4.94837158203125
1765999926203840800,6.1758408203125,-0.3415497839450836,-0.0166460648179054,-0.425925463438034,4.967151367187499
1765999926222620200,6.1946201171875,-0.1521816849708557,-0.3718639314174652,-0.1757763475179672,4.9859306640625
1765999926241399600,6.213399658203125,0.067576915025711,-0.4172206521034241,-0.0212275516241788,5.0047102050781245
1765999926260179000,6.232178955078125,0.2239582985639572,-0.3368919193744659,0.0345138609409332,5.023489501953125
1765999926278958300,6.250958251953125,0.3204749226570129,-0.2258672565221786,0.1015562713146209,5.0422687988281245
1765999926297737700,6.26973779296875,0.3409388959407806,-0.2157879769802093,0.238542690873146,5.06104833984375
1765999926316517000,6.28851708984375,0.4211149215698242,-0.1418733447790146,0.3828594982624054,5.07982763671875
1765999926335296500,6.307296630859375,0.5067886710166931,-0.0122172953560948,0.523052990436554,5.098607177734375
1765999926354076000,6.326075927734375,0.599334716796875,0.1026252806186676,0.6554579138755798,5.117386474609375
1765999926372855300,6.344855224609375,0.6101775765419006,0.1313359290361404,0.7648026943206787,5.136165771484374
1765999926391634700,6.363634765625,0.7033344507217407,-0.0894916877150535,0.8312342762947083,5.1549453125
1765999926410414000,6.3824140625,0.7905353903770447,-0.4190532267093658,0.7506000995635986,5.173724609374999
1765999926429193500,6.401193359375,0.8036689758300781,-0.7980948090553284,0.5288561582565308,5.19250390625
1765999926447973000,6.41997314453125,0.8015309572219849,-1.0427461862564087,0.1154534444212913,5.2112836914062495
1765999926466752500,6.43875244140625,0.7022654414176941,-1.0509928464889526,-0.6166679859161377,5.23006298828125
1765999926494921500,6.46692138671875,0.1517235338687896,-1.029459834098816,-1.845269799232483,5.258231933593749
1765999926513700900,6.485700927734375,-0.058719377964735,-1.1256710290908811,-2.5770857334136963,5.277011474609375
1765999926532480300,6.504480224609375,-0.0859028622508049,-1.6792672872543335,-3.059363603591919,5.295790771484374
1765999926551259600,6.523259765625,0.1503490954637527,-2.059225082397461,-3.3910632133483887,5.3145703125
1765999926570039300,6.542039306640625,0.5923097729682922,-2.24111008644104,-3.542099475860596,5.3333498535156245
1765999926588818700,6.560818603515625,0.97211492061615,-2.221256971359253,-3.525453329086304,5.352129150390625
1765999926607598000,6.57959814453125,1.2413536310195925,-2.096182584762573,-3.360825300216675,5.37090869140625
1765999926626377500,6.59837744140625,0.8992693424224854,-1.7967060804367063,-1.9320125579833984,5.38968798828125
1765999926645156900,6.617156982421875,-0.4357756674289703,2.131459951400757,-0.4286743700504303,5.408467529296875
1765999926663936300,6.635936279296875,0.9172898530960084,0.7681624889373779,-1.7163772583007812,5.427246826171874
1765999926682715600,6.654715576171875,1.855578184127808,0.0592538826167583,-1.661094069480896,5.446026123046875
1765999926710884900,6.682884765625,0.7880918979644775,-0.0615446269512176,-0.6659952998161316,5.4741953125
1765999926729664300,6.701664306640625,0.8016836643218994,-0.4969384968280792,-0.4240928590297699,5.492974853515625
1765999926748443600,6.720443603515625,0.8290198445320129,0.3749182522296905,-0.2706131041049957,5.511754150390625
1765999926767223000,6.73922314453125,0.5237401723861694,1.3002257347106934,-0.1127045527100563,5.53053369140625
1765999926786002400,6.75800244140625,0.3206276595592499,1.744477152824402,0.0520762242376804,5.549312988281249
1765999926804781800,6.77678173828125,0.1446985900402069,1.792277216911316,0.2452622056007385,5.56809228515625
1765999926823561200,6.795561279296875,-0.0035888305865228,1.6077960729599,0.4234820008277893,5.586871826171874
1765999926842340600,6.814340576171875,-0.114460788667202,1.3782637119293213,0.623845636844635,5.605651123046875
1765999926861120000,6.8331201171875,-0.1889862865209579,1.1601849794387815,0.8203914165496826,5.6244306640624995
1765999926879899400,6.8518994140625,-0.2488510459661483,1.0175479650497437,0.9607375860214232,5.6432099609375
1765999926898678800,6.8706787109375,-0.2749654948711395,0.9352339506149292,1.0890191793441772,5.6619892578124995
1765999926917458200,6.889458251953125,-0.3048978745937347,0.8898772597312927,1.254563570022583,5.680768798828125
1765999926936237600,6.908237548828125,-0.3366628587245941,0.8700241446495056,1.4265220165252686,5.699548095703125
1765999926955017000,6.927016845703125,-0.3574322462081909,0.8216131329536438,1.5569416284561155,5.718327392578125
1765999926973796600,6.945796630859375,-0.3288743197917938,0.7841976881027222,1.6488767862319946,5.737107177734375
1765999926992576000,6.964575927734375,-0.2560287117958069,0.7301361560821533,1.6951497793197632,5.755886474609374
1765999927011355400,6.98335546875,-0.1689804643392563,0.6191114783287048,1.7006475925445557,5.774666015625
1765999927030134800,7.002134765625,-0.0912479236721992,0.4996874034404754,1.6872085332870483,5.793445312499999
1765999927048914200,7.0209140625,-0.0536797419190406,0.3228420317173004,1.6507093906402588,5.812224609375
1765999927067693600,7.039693603515625,-0.0828485339879989,0.1574503928422927,1.5806126594543457,5.8310041503906245
1765999927086473000,7.058472900390625,-0.1285106837749481,0.0349720083177089,1.4871503114700315,5.849783447265625
1765999927105252400,7.07725244140625,-0.1607337892055511,-0.0665842592716217,1.3642138242721558,5.86856298828125
1765999927133421600,7.105421630859375,-0.1902080178260803,-0.19700388610363,1.1195623874664309,5.896732177734375
1765999927152201000,7.124200927734375,-0.2500727772712707,-0.2458730787038803,0.9564615488052368,5.915511474609374
1765999927170980400,7.14298046875,-0.3252091407775879,-0.2868010103702545,0.8265000581741333,5.934291015625
1765999927189759700,7.161759765625,-0.3302487730979919,-0.2655734717845917,0.695164144039154,5.9530703124999995
1765999927208539100,7.1805390625,-0.2303723841905594,-0.3897317349910736,0.5586358308792114,5.971849609375
1765999927227318500,7.199318603515625,-0.0917060747742652,-0.6925679445266724,0.4237874448299408,5.990629150390625
1765999927246098000,7.218097900390625,-7.63580974307e-05,-1.0816887617111206,0.3298669755458832,6.009408447265625
1765999927264877300,7.236877197265625,0.0315358936786651,-1.3393210172653198,0.2102901935577392,6.028187744140625
1765999927283656700,7.25565673828125,0.0011453714687377,-1.3197733163833618,-0.0009162971982732,6.046967285156249
1765999927302436400,7.274436279296875,-0.1805869042873382,-0.6246092319488525,-0.4021017551422119,6.065746826171875
