time,seconds_elapsed,z,y,x,t
1765999930379913700,10.351913818359376,3.044563770294189,1.5498275756835938,-0.7458568811416626,9.145572021484377
1765999930398693000,10.370693115234374,1.625131130218506,2.3145856857299805,-0.939555048942566,9.164351318359374
1765999930417472500,10.389472412109376,-0.8346047401428223,3.7528152465820312,0.2378275990486145,9.183130615234376
1765999930436252000,10.408251953125,-1.638542652130127,4.336343765258789,3.44594955444336,9.20191015625
1765999930455031600,10.427031494140625,-0.5772877335548401,2.1619443893432617,6.40088415145874,9.220689697265625
1765999930473811000,10.44581103515625,-8.978578567504883,-3.133086681365967,2.752810478210449,9.23946923828125
1765999930492590300,10.46459033203125,-3.2598800659179688,2.303147315979004,-4.295115470886231,9.25824853515625
1765999930511369700,10.48336962890625,-0.0241268873214721,6.743770599365234,-0.8412206172943115,9.27702783203125
1765999930530149000,10.502149169921877,0.8883112668991089,-1.2592458724975586,4.955652236938477,9.295807373046877
1765999930548928500,10.520928466796876,-0.6009933948516846,-2.122809410095215,1.300459623336792,9.314586669921876
1765999930567708000,10.5397080078125,-1.957719802856445,0.5363883972167969,-2.478182077407837,9.3333662109375
1765999930586487600,10.558487548828126,-3.133297920227051,-0.6679792404174805,-3.099191904067993,9.352145751953126
1765999930605267000,10.577266845703123,-3.6394660472869873,-2.645941734313965,-2.335915327072144,9.370925048828123
1765999930624046300,10.59604638671875,-4.928922653198242,-3.1758341789245605,-1.7794055938720703,9.38970458984375
1765999930642825700,10.61482568359375,-6.055720806121826,-2.9341583251953125,-0.5506545901298523,9.40848388671875
1765999930661605000,10.633605224609376,-5.969784736633301,-2.975526809692383,0.4602124094963074,9.427263427734376
1765999930680384500,10.652384521484375,-5.261232376098633,-3.2398462295532227,0.1574537009000778,9.446042724609375
1765999930699164000,10.671163818359377,-4.624300956726074,-3.457902431488037,-0.962199866771698,9.464822021484377
1765999930717943300,10.689943359375,-4.162533760070801,-3.5484261512756348,-2.2108676433563232,9.4836015625
1765999930736723000,10.708722900390624,-4.036481857299805,-3.1926159858703613,-2.524031162261963,9.502381103515624
1765999930755502300,10.72750244140625,-4.242164134979248,-2.506580352783203,-2.078728675842285,9.52116064453125
1765999930774281700,10.74628173828125,-4.405154228210449,-1.6778879165649414,-1.6464333534240725,9.53993994140625
1765999930793061000,10.76506103515625,-3.4425241947174072,-0.7869749069213867,-1.8276598453521729,9.55871923828125
1765999930811840500,10.783840576171874,-2.176422119140625,-0.1784629821777343,-1.8000715970993042,9.577498779296874
1765999930830620000,10.802619873046876,-2.21335506439209,0.5893239974975586,-2.013209581375122,9.596278076171876
1765999930849399300,10.8213994140625,-2.340096473693848,1.1431159973144531,-2.179675579071045,9.6150576171875
1765999930868179000,10.840178955078123,-1.9251997470855715,1.1113100051879885,-1.6354962587356567,9.633837158203123
1765999930886958300,10.858958251953124,-1.1676228046417236,1.0329484939575195,-0.7875667810440063,9.652616455078125
1765999930905737700,10.87773779296875,-0.4311797618865967,1.5507240295410156,-0.585416853427887,9.67139599609375
1765999930924517000,10.89651708984375,0.1258890628814697,1.9709672927856443,-0.5517557263374329,9.69017529296875
1765999930943296500,10.915296630859377,0.6750514507293701,2.046549797058105,0.1826256662607193,9.708954833984377
1765999930962076000,10.934075927734376,0.714245080947876,1.965078353881836,0.9429236054420472,9.727734130859377
1765999930980855300,10.952855224609374,1.0368430614471436,1.5586786270141602,1.0813133716583252,9.746513427734374
1765999930999635000,10.971635009765626,1.333912372589111,1.1545209884643557,0.5107240080833435,9.765293212890626
1765999931018414300,10.990414306640623,1.4872381687164309,0.7095012664794922,0.0375519394874572,9.784072509765624
1765999931037193700,11.00919384765625,1.3020329475402832,0.0078144073486328,0.8636409044265747,9.80285205078125
1765999931055973000,11.02797314453125,1.098970651626587,-1.0810308456420898,2.05570125579834,9.82163134765625
1765999931074752500,11.04675244140625,2.021573305130005,-0.2781801223754883,2.8967785835266118,9.84041064453125
1765999931093532000,11.065531982421875,3.925375461578369,2.2321157455444336,4.860692977905273,9.859190185546876
1765999931112311600,11.0843115234375,3.452620029449463,4.015872001647949,4.077530860900879,9.8779697265625
1765999931131091000,11.103091064453125,4.968616962432861,5.466867446899414,0.9538922309875488,9.896749267578125
1765999931149870300,11.121870361328124,4.891834259033203,4.105572700500488,-1.0366690158843994,9.915528564453124
1765999931168649700,11.140649658203126,2.748976230621338,1.218947410583496,-2.153343677520752,9.934307861328126
1765999931187429000,11.15942919921875,0.3175067901611328,0.0871181488037109,-1.3174002170562744,9.95308740234375
1765999931206208500,11.17820849609375,-1.0241069793701172,0.5262413024902344,0.7101131677627563,9.97186669921875
1765999931224988200,11.19698828125,-0.9717645645141602,0.3809576034545898,2.5940632820129395,9.990646484375
1765999931243767600,11.215767578125,-0.4925293922424316,-0.9596958160400392,2.1870837211608887,10.00942578125
1765999931262547000,11.234546875,0.1973409652709961,-1.709355354309082,0.9473456144332886,10.028205078125
1765999931281326300,11.253326416015623,0.6986484527587891,-1.1865272521972656,0.5539321303367615,10.046984619140623
1765999931309495600,11.28149560546875,0.8711190223693848,0.179417610168457,1.1555169820785522,10.07515380859375
1765999931328275000,11.30027490234375,0.7090480327606201,0.8645315170288086,0.5828200578689575,10.09393310546875
1765999931347054300,11.319054443359375,0.6790615320205688,1.2193307876586914,-0.4956647157669067,10.112712646484376
1765999931365833700,11.337833740234377,0.6138142347335815,1.1215906143188477,-1.091476559638977,10.131491943359377
1765999931384613000,11.356613037109376,0.3716170787811279,0.3980922698974609,-0.6665158867835999,10.150271240234376
1765999931403392500,11.375392578125,-0.3108041286468506,-0.37603759765625,0.2877663373947143,10.16905078125
1765999931422172200,11.394172119140626,-0.9960267543792723,-0.5704183578491211,0.5535203814506531,10.187830322265626
1765999931440951600,11.41295166015625,-1.207545042037964,-0.0400781631469726,0.1048826575279235,10.20660986328125
1765999931459731000,11.43173095703125,-0.9986021518707277,0.488443374633789,-0.4135554432868957,10.22538916015625
1765999931478510300,11.45051025390625,-0.5121641159057617,0.5050125122070312,-0.5286288261413574,10.24416845703125
1765999931497289700,11.469289794921876,-0.213355541229248,0.187347412109375,-0.290302038192749,10.262947998046876
1765999931516069400,11.4880693359375,0.1028017997741699,-0.0576686859130859,-0.1839246749877929,10.2817275390625
1765999931534848800,11.506848876953123,0.413609504699707,0.1345090866088867,-0.2231693863868713,10.300507080078123
1765999931553628200,11.525628173828125,0.4264516830444336,1.065108299255371,-0.6400961875915527,10.319286376953125
1765999931572407600,11.544407470703124,0.3679341077804565,0.5659265518188477,-0.5861082077026367,10.338065673828124
1765999931591187000,11.56318701171875,0.647747278213501,0.1673822402954101,-1.0419241189956665,10.35684521484375
1765999931609966300,11.58196630859375,1.0006638765335083,0.7330074310302734,-2.100259780883789,10.37562451171875
1765999931628746000,11.60074609375,1.3076624870300293,1.5174360275268557,-2.9460983276367188,10.394404296875
1765999931647525400,11.619525390625,1.3825664520263672,1.4742193222045898,-2.765911102294922,10.41318359375
1765999931666304800,11.6383046875,1.63666033744812,0.6778421401977539,-1.1684317588806152,10.431962890625
1765999931685084200,11.657084228515624,1.6658618450164795,0.7515172958374023,-0.0759490132331848,10.450742431640624
1765999931703863600,11.675863525390625,1.3551126718521118,-0.1256704330444336,1.1437194347381592,10.469521728515625
1765999931722643000,11.694642822265624,1.4690828323364258,-0.974522590637207,2.3253753185272217,10.488301025390625
1765999931741422600,11.713422607421874,2.378858804702759,-0.3658151626586914,3.0264780521392822,10.507080810546874
1765999931760202000,11.732201904296875,3.274625539779663,0.9534893035888672,3.747621536254883,10.525860107421876
1765999931778981400,11.7509814453125,3.065946102142334,1.199665069580078,3.6237831115722656,10.5446396484375
1765999931797760800,11.7697607421875,3.121671676635742,1.061288833618164,2.1795287132263184,10.5634189453125
1765999931816540200,11.7885400390625,3.630951404571533,1.0007753372192385,1.1086666584014893,10.5821982421875
1765999931835319600,11.807319580078126,3.288395881652832,1.0352849960327148,0.8975328803062439,10.600977783203126
1765999931854099200,11.82609912109375,2.9841854572296143,1.451573371887207,1.121016263961792,10.61975732421875
1765999931872878600,11.844878662109377,2.3609955310821533,2.358919143676758,2.0975112915039062,10.638536865234377
1765999931891658000,11.863657958984374,1.3690710067749023,2.879338264465332,3.3369174003601074,10.657316162109375
1765999931910437400,11.882437255859376,1.1319667100906372,2.8899154663085938,4.110082626342773,10.676095458984376
1765999931929216800,11.901216796875,1.0926259756088257,2.5753936767578125,3.4285690784454346,10.694875
1765999931947996200,11.91999609375,-4.714250087738037,-1.1542139053344729,1.3538731336593628,10.713654296875
1765999931966775800,11.93877587890625,-3.44629979133606,0.4026050567626953,-4.70082950592041,10.73243408203125
1765999931985555200,11.95755517578125,0.5938993692398071,7.305209159851074,-5.706538677215576,10.75121337890625
1765999932004334600,11.97633447265625,0.2829620838165283,2.865397453308105,2.9319286346435547,10.76999267578125
1765999932023114000,11.995114013671875,1.98734712600708,0.1042509078979492,5.746065139770508,10.788772216796875
1765999932041893400,12.013893310546877,-1.1119568347930908,1.7037353515625,3.51997184753418,10.807551513671877
1765999932060673000,12.032673095703124,-2.2074878215789795,2.689249992370605,-0.7154169082641602,10.826331298828125
1765999932079452400,12.051452392578126,-3.470566511154175,0.4510231018066406,-2.642979145050049,10.845110595703126
1765999932098231800,12.070231689453124,-3.5130832195281982,-1.5429587364196775,-3.1436774730682373,10.863889892578124
1765999932126401000,12.098401123046877,-4.40758228302002,-2.503159523010254,-1.84696626663208,10.892059326171877
1765999932145180400,12.117180419921874,-5.9746294021606445,-2.3874258995056152,-0.3607327342033386,10.910838623046875
1765999932163959800,12.135959716796876,-6.600958824157715,-2.254069805145264,-0.2070685029029846,10.929617919921876
1765999932182739200,12.1547392578125,-6.137868404388428,-2.5895814895629883,-1.1586072444915771,10.9483974609375
1765999932201518600,12.1735185546875,-5.193058013916016,-2.9920711517333984,-1.20004403591156,10.967176757812501
1765999932220298000,12.192298095703125,-4.664379119873047,-2.767772674560547,-1.828415870666504,10.985956298828125
1765999932248467200,12.22046728515625,-4.261642456054688,-2.302685260772705,-2.03083872795105,11.01412548828125
1765999932267246600,12.23924658203125,-4.4869489669799805,-1.971618175506592,-1.063965916633606,11.03290478515625
1765999932286026000,12.25802587890625,-4.518557548522949,-1.565927505493164,-0.5355969667434692,11.051684082031251
1765999932304805600,12.2768056640625,-5.05342960357666,-0.9822940826416016,-0.9417982697486876,11.0704638671875
1765999932323585000,12.2955849609375,-4.6245436668396,-0.74957275390625,-1.715978503227234,11.0892431640625
1765999932342364400,12.314364501953126,-3.402775764465332,-0.9670305252075196,-1.3643208742141724,11.108022705078126
1765999932361143800,12.333143798828123,-2.8414454460144043,-0.5932979583740234,-0.9442393183708192,11.126802001953124
1765999932379923200,12.351923095703125,-2.4939446449279785,0.2132806777954101,-0.7974807620048523,11.145581298828125
