time,seconds_elapsed,z,y,x,t
1765999941518478600,21.490478515625,-0.2137263119220733,1.894902586936951,2.4972152709960938,20.2817890625
1765999941537258200,21.50925830078125,-0.1995237022638321,1.7666209936141968,2.3428192138671875,20.30056884765625
1765999941556037600,21.52803759765625,-0.1731038093566894,1.486692190170288,2.148258686065674,20.31934814453125
1765999941574817000,21.54681713867188,-0.0516944304108619,1.0462586879730225,1.9552254676818848,20.33812768554688
1765999941593596700,21.5655966796875,0.0327576249837875,0.6971494555473328,1.774256706237793,20.356907226562498
1765999941612376000,21.5843759765625,0.1005636155605316,0.406988650560379,1.6268856525421145,20.3756865234375
1765999941631155700,21.60315576171875,0.0031306820455938,0.2495382577180862,1.4587451219558716,20.39446630859375
1765999941659325000,21.63132495117188,-0.0032833982259035,0.2756527364253998,1.143080711364746,20.42263549804688
1765999941678104300,21.65010424804688,-0.0880408883094787,0.291229784488678,0.9146173000335692,20.44141479492188
1765999941696883700,21.6688837890625,-0.1474474817514419,0.2449567764997482,0.7409789562225342,20.4601943359375
1765999941715663400,21.687663330078124,-0.1509599536657333,0.2061668634414672,0.6148353815078735,20.478973876953123
1765999941734442800,21.70644287109375,-0.1129336282610893,0.2674060463905334,0.5145008563995361,20.49775341796875
1765999941753222100,21.72522216796875,-0.0550541877746582,0.3214675784111023,0.3430005609989166,20.51653271484375
1765999941772001800,21.74400170898437,-0.0889571830630302,0.2052505612373352,0.1507308781147003,20.53531225585937
1765999941790781200,21.76278125,-0.1883754283189773,0.0177150778472423,-0.0123700117692351,20.554091796875
1765999941809560600,21.781560546875,-0.2503781914710998,-0.0109955659136176,-0.2226602137088775,20.57287109375
1765999941828340200,21.80034033203125,-0.3065777719020843,0.0809395834803581,-0.5151117444038391,20.59165087890625
1765999941847119600,21.81911962890625,-0.3484219908714294,0.0746782198548317,-0.6206386089324951,20.61043017578125
1765999941865899000,21.83789892578125,-0.2503781914710998,-0.0332921296358108,-0.503505289554596,20.62920947265625
1765999941884678700,21.8566787109375,-0.0541378892958164,-0.1397353112697601,-0.3704894781112671,20.6479892578125
1765999941903458000,21.8754580078125,0.0590248107910156,-0.2533561587333679,-0.3057378232479095,20.6667685546875
1765999941922237700,21.89423779296875,-0.0031306820455938,-0.2762635946273803,-0.2952004075050354,20.68554833984375
1765999941941017000,21.91301708984375,-0.0585666596889495,-0.2979492843151092,-0.2858847081661224,20.704327636718748
1765999941959796500,21.93179638671875,-0.0681877806782722,-0.3426951467990875,-0.2432768940925598,20.72310693359375
1765999941978576100,21.950576171875,-0.0639117285609245,-0.3127627670764923,-0.1789833754301071,20.74188671875
1765999941997355500,21.96935546875,-0.0651334598660469,-0.1635590493679046,-0.1166751757264137,20.760666015625
1765999942016135000,21.988135009765625,-0.0817795246839523,-0.0087048234418034,-0.065057098865509,20.779445556640624
1765999942034914600,22.00691455078125,-0.1042288020253181,0.0526870861649513,-0.0296269413083791,20.79822509765625
1765999942053694000,22.02569384765625,-0.146073043346405,0.0922405794262886,-0.024129157885909,20.81700439453125
1765999942072473300,22.044473388671875,-0.1798233240842819,0.0901025533676147,-0.0276416316628456,20.835783935546875
1765999942091253000,22.0632529296875,-0.1616500914096832,0.0491746142506599,-0.0251981727778911,20.8545634765625
1765999942110032400,22.08203247070313,-0.0973565727472305,-0.0035124723799526,-0.0091629717499017,20.87334301757813
1765999942138201600,22.11020166015625,-0.0008399390499107,-0.1678351014852523,-0.0314595364034175,20.90151220703125
1765999942156981000,22.12898095703125,0.0845284163951873,-0.2842048406600952,-0.0681114196777343,20.92029150390625
1765999942175760600,22.1477607421875,0.1856265366077423,-0.4524980783462524,-0.0818558782339096,20.9390712890625
1765999942194540000,22.1665400390625,0.2264017611742019,-0.5807796716690063,-0.0810922980308532,20.9578505859375
1765999942213319400,22.1853193359375,0.2412152290344238,-0.6798924803733826,-0.057421289384365,20.9766298828125
1765999942232099000,22.20409912109375,0.2422842383384704,-0.6600393652915955,-0.0181732270866632,20.99540966796875
1765999942250878500,22.22287841796875,0.2329685539007187,-0.5352702736854553,0.0423023849725723,21.01418896484375
1765999942269658000,22.241658203125,0.2033416181802749,-0.3959930837154388,0.1221729591488838,21.03296875
1765999942288437500,22.2604375,0.1508072465658188,-0.2961167097091675,0.1907425224781036,21.051748046874998
1765999942307217000,22.279216796875,0.0862082913517952,-0.300392746925354,0.2539670467376709,21.07052734375
1765999942325996500,22.29799658203125,0.0512362830340862,-0.3749182522296905,0.3400989770889282,21.08930712890625
1765999942344776000,22.31677587890625,0.0553596206009388,-0.4214966893196106,0.430506944656372,21.10808642578125
1765999942363555300,22.335555419921874,0.1127809062600135,-0.4743365049362182,0.503810703754425,21.126865966796874
1765999942382335000,22.3543349609375,0.1182786896824836,-0.6036871075630188,0.5761982202529907,21.1456455078125
1765999942401114400,22.3731142578125,0.0839175507426261,-0.7331904768943787,0.6569850444793701,21.1644248046875
1765999942419893800,22.391893798828125,0.0574976466596126,-0.6708822250366211,0.7602212429046631,21.183204345703125
1765999942438673400,22.41067333984375,0.0651334598660469,-0.3935496211051941,0.8830050230026245,21.20198388671875
1765999942457452800,22.429452880859376,-0.057192213833332,-0.0314595364034175,1.0056360960006714,21.220763427734376
1765999942476232400,22.448232421875,-0.2076176702976226,0.273667424917221,1.086881160736084,21.23954296875
1765999942495011800,22.46701171875,-0.238313615322113,0.4648680984973907,1.1180353164672852,21.258322265625
1765999942523181000,22.49518115234375,-0.2121991515159607,0.6924152374267578,0.8216131329536438,21.28649169921875
1765999942541960400,22.51396044921875,-0.1155297979712486,0.5754346251487732,0.4341721534729004,21.30527099609375
1765999942560740000,22.532739990234376,-0.0672714859247207,0.1394298821687698,-0.129656046628952,21.324050537109375
1765999942579519500,22.55151953125,-0.1373682171106338,-0.2637408673763275,-0.8579595685005188,21.342830078125
1765999942598299000,22.570298828125,-0.1850156635046005,-0.8530726432800293,-1.663995623588562,21.361609375
1765999942617078500,22.58907861328125,-0.327041745185852,-1.4955496788024902,-2.530965566635132,21.38038916015625
1765999942635858000,22.60785791015625,-0.6872992515563965,-2.1030547618865967,-3.249189853668213,21.399168457031248
1765999942654637300,22.62663720703125,-0.9380592107772828,-2.32968544960022,-3.835467338562012,21.41794775390625
1765999942673417000,22.6454169921875,-0.8265764117240906,-1.8981095552444456,-4.311789035797119,21.4367275390625
1765999942692196400,22.6641962890625,-0.528932511806488,-1.169347882270813,-4.480693340301514,21.4555068359375
1765999942710975700,22.682975830078124,-0.2253327518701553,-1.369558811187744,-2.622747898101806,21.474286376953124
1765999942729755400,22.70175537109375,-0.1494327932596206,0.0097738364711403,-2.894277334213257,21.49306591796875
1765999942748534800,22.72053466796875,-0.1402698308229446,-0.2755000293254852,-2.755610942840576,21.51184521484375
1765999942776704000,22.7487041015625,0.0965929925441742,-0.3619373738765716,-1.5580105781555176,21.5400146484375
1765999942795483600,22.767483642578124,-0.1908188909292221,-0.6861538887023926,-0.6635518670082092,21.558794189453124
1765999942814263000,22.786262939453124,-0.0981201529502868,-0.5073232054710388,0.1151480078697204,21.577573486328124
1765999942833042400,22.80504248046875,0.1836412250995636,-0.0299323741346597,0.5743656158447266,21.59635302734375
1765999942851822000,22.82382202148437,0.4304305911064148,0.605519711971283,0.9573778510093688,21.61513256835937
1765999942870601500,22.8426015625,0.4672352075576782,1.1685843467712402,1.3057234287261963,21.633912109375
1765999942889380900,22.861380859375,0.4452440738677978,1.5015056133270264,1.5538872480392456,21.65269140625
1765999942908160500,22.880160400390626,0.4113410711288452,1.709810495376587,1.7469205856323242,21.671470947265625
1765999942926940000,22.89893994140625,0.2990946769714355,1.791208267211914,1.866191864013672,21.69025048828125
1765999942945719300,22.91771923828125,0.1902080178260803,1.7528765201568604,1.9509494304656985,21.70902978515625
1765999942964499000,22.9364990234375,0.1308014243841171,1.5265511274337769,2.037539482116699,21.7278095703125
1765999942983278300,22.9552783203125,0.1001054644584655,1.3739875555038452,2.0880885124206543,21.7465888671875
1765999943002057700,22.9740576171875,0.0457384996116161,1.3697115182876587,2.1051926612854004,21.7653681640625
1765999943020837400,22.99283740234375,-0.0411570146679878,1.4801253080368042,2.096029758453369,21.78414794921875
1765999943039616800,23.01161669921875,-0.1268308013677597,1.64566969871521,2.062432289123535,21.80292724609375
1765999943058396200,23.03039624023437,-0.1130863428115844,1.669951558113098,2.014479398727417,21.82170678710937
1765999943077175800,23.04917578125,-0.0463493652641773,1.5645774602890017,1.9385793209075928,21.840486328125
1765999943095955200,23.067955078125,0.0271071251481771,1.389870047569275,1.8011348247528076,21.859265625
1765999943114734600,23.086734619140625,0.0634535774588584,1.2945752143859863,1.5723659992218018,21.878045166015625
1765999943133514200,23.10551416015625,-0.011530072428286,1.070387840270996,1.2866339683532717,21.89682470703125
1765999943152293600,23.12429370117188,-0.0933859497308731,0.7189878225326538,0.9983057379722596,21.91560424804688
1765999943171073300,23.1430732421875,-0.1175151094794273,0.2846629917621612,0.6907353401184082,21.9343837890625
1765999943189852700,23.161852783203123,-0.1975383907556533,0.2666424810886383,0.3730856776237488,21.953163330078123
1765999943208632000,23.180632080078126,-0.3007745444774627,0.5007563829421997,0.0893389731645584,21.971942626953126
1765999943227411700,23.19941162109375,-0.3187950551509857,0.7797688841819763,-0.1238528341054916,21.990722167968748
1765999943246191000,23.21819116210937,-0.14882193505764,1.0441206693649292,-0.2255618125200271,22.00950170898437
1765999943264970500,23.236970458984374,0.029245151206851,1.3953678607940674,-0.6133082509040833,22.028281005859373
1765999943293140000,23.265139892578127,-0.275729089975357,1.054658055305481,-0.6134609580039978,22.056450439453126
1765999943311919400,23.28391943359375,-0.275270938873291,0.7777835726737976,-0.4043924808502197,22.075229980468748
1765999943330698800,23.30269873046875,-0.0852919965982437,0.6592758297920227,-0.194713145494461,22.09400927734375
1765999943349478400,23.321478515625,0.083764836192131,0.4999928176403045,-0.1168278902769088,22.1127890625
1765999943368257800,23.3402578125,0.0507781356573104,0.5203040838241577,-0.1131627038121223,22.131568359375
1765999943387037200,23.359037109375,-0.0090866135433316,0.3775144219398498,-0.1408043354749679,22.15034765625
1765999943405816800,23.37781689453125,-0.0287870019674301,0.1621845960617065,-0.1769980639219284,22.16912744140625
1765999943424596200,23.39659619140625,-0.0662024691700935,0.0109955659136176,-0.2189950197935104,22.18790673828125
1765999943443375600,23.415375732421875,-0.1069776937365531,-0.0380263328552246,-0.2582430839538574,22.206686279296875
1765999943471545000,23.443545166015625,-0.1657734364271164,-0.0959057733416557,-0.2246455252170562,22.234855712890624
1765999943490324500,23.462324462890624,-0.1779907196760177,-0.1372918635606765,-0.1533270627260208,22.253635009765624
1765999943509103900,23.481103759765624,-0.1395062506198883,-0.2076940238475799,-0.0846047699451446,22.272414306640623
1765999943527883500,23.499883544921875,-0.0903316289186477,-0.2283107042312622,-0.0398589260876178,22.291194091796875
1765999943546663000,23.518662841796875,-0.0541378892958164,-0.2118173688650131,-0.0146607551723718,22.309973388671875
