time,seconds_elapsed,z,y,x,t
1765999922231997400,2.20399755859375,-0.2960403561592102,0.176234483718872,0.171653002500534,0.99530810546875
1765999922250776800,2.22277685546875,-0.3245982825756073,0.15042544901371,0.1988364905118942,1.01408740234375
1765999922269556200,2.24155615234375,-0.3562105298042297,0.1059850379824638,0.227088987827301,1.03286669921875
1765999922288335600,2.260335693359375,-0.3872119188308716,0.0595593154430389,0.2507599890232086,1.0516462402343747
1765999922307115000,2.279114990234375,-0.4024835228919983,-0.0540615320205688,0.2664897739887237,1.0704255371093747
1765999922325894400,2.297894287109375,-0.4226420819759369,-0.1681405305862426,0.2788597643375397,1.0892048339843747
1765999922344673800,2.316673828125,-0.4408152997493744,-0.2437350451946258,0.29214608669281,1.1079843749999998
1765999922363453200,2.335453125,-0.4131736755371094,-0.356286883354187,0.3216203153133392,1.1267636718749998
1765999922382232600,2.354232666015625,-0.3513236045837402,-0.4566214084625244,0.3830122053623199,1.1455432128906249
1765999922401012000,2.373011962890625,-0.2639699280261993,-0.6026180982589722,0.4841103255748749,1.164322509765625
1765999922419791400,2.391791259765625,-0.1532506942749023,-0.767857015132904,0.6093376278877258,1.183101806640625
1765999922438570800,2.41057080078125,-0.0536797419190406,-0.878728985786438,0.7267763614654541,1.20188134765625
1765999922457350100,2.42935009765625,-0.0151952616870403,-0.9356921315193176,0.8520036339759827,1.22066064453125
1765999922476129500,2.448129638671875,0.1008690446615219,-0.953254461288452,0.9466876983642578,1.239440185546875
1765999922494909000,2.466908935546875,0.2923751473426819,-0.771980345249176,0.9404263496398926,1.258219482421875
1765999922513688300,2.485688232421875,0.5373319387435913,-0.5804742574691772,0.8202387094497681,1.276998779296875
1765999922532467700,2.5044677734375,0.8708640933036804,-0.8489493131637573,0.5082395076751709,1.2957783203124997
1765999922551247000,2.5232470703125,1.412395715713501,-1.8066326379776,0.1401934623718261,1.3145576171874997
1765999922570026500,2.542026611328125,2.0199007987976074,-3.1526732444763184,-0.2272416949272155,1.3333371582031248
1765999922588806000,2.560805908203125,2.3436591625213623,-4.107149124145508,-0.6846266984939575,1.3521164550781248
1765999922607585300,2.579585205078125,2.420628070831299,-4.582707405090332,-1.2916735410690308,1.3708957519531249
1765999922626364700,2.59836474609375,2.4033710956573486,-4.554302215576172,-2.015090227127075,1.38967529296875
1765999922645144000,2.61714404296875,2.3752713203430176,-4.045146465301514,-2.7446155548095703,1.40845458984375
1765999922663923500,2.63592333984375,2.312199592590332,-3.6456410884857178,-3.073566198348999,1.42723388671875
1765999922682702800,2.654702880859375,2.108323335647583,-4.006661891937256,-2.984379768371582,1.446013427734375
1765999922701482200,2.673482177734375,1.13002347946167,-4.199848175048828,-1.8073961734771729,1.464792724609375
1765999922720261600,2.69226171875,0.0301614478230476,-0.2712239623069763,-0.8420770764350891,1.483572265625
1765999922739041000,2.711041015625,0.8830813765525818,-0.7163916826248169,-1.7186681032180786,1.5023515625000001
1765999922757820400,2.7298203125,1.4267510175704956,-1.5940515995025637,-1.5526655912399292,1.5211308593749997
1765999922776599800,2.748599853515625,0.6582831740379333,-0.457843154668808,-0.7626646757125854,1.5399104003906248
1765999922795379200,2.767379150390625,0.385990172624588,-0.4378373324871063,-0.1120936870574951,1.5586896972656248
1765999922814158600,2.78615869140625,0.3725511431694031,0.0222965646535158,0.3171915411949157,1.5774692382812499
1765999922832938000,2.80493798828125,0.1474474817514419,1.014188289642334,0.7308996915817261,1.5962485351562499
1765999922851717400,2.82371728515625,-0.1005636155605316,1.9555308818817136,1.0832159519195557,1.6150278320312499
1765999922870496800,2.842496826171875,-0.275270938873291,2.394589900970459,1.454010844230652,1.633807373046875
1765999922889276200,2.861276123046875,-0.42798712849617,2.4236059188842773,1.7091996669769287,1.652586669921875
1765999922908055600,2.8800556640625,-0.5524508357048035,2.3962697982788086,1.935525059700012,1.6713662109375
1765999922926835000,2.8988349609375,-0.6529380679130554,2.473238706588745,2.145815372467041,1.6901455078125
1765999922945614300,2.9176142578125,-0.6981421113014221,2.5667011737823486,2.2702789306640625,1.7089248046875
1765999922964394000,2.93639404296875,-0.6984475255012512,2.599229574203491,2.2986841201782227,1.7277045898437497
1765999922983173000,2.955173095703125,-0.6833286285400391,2.5014913082122803,2.268904447555542,1.7464836425781247
1765999923001952800,2.973952880859375,-0.6355284452438354,2.260199785232544,2.19376802444458,1.7652634277343748
1765999923020732200,2.992732177734375,-0.552603542804718,1.900552988052368,2.1018331050872803,1.7840427246093749
1765999923039511300,3.01151123046875,-0.4783834815025329,1.5036436319351196,2.019671678543091,1.8028217773437498
1765999923058291000,3.030291015625,-0.4261545538902282,1.1305580139160156,1.934150576591492,1.8216015625
1765999923077070300,3.0490703125,-0.3884336352348327,0.8200859427452087,1.7883065938949585,1.840380859375
1765999923095849700,3.067849609375,-0.3728565871715545,0.5539016127586365,1.624442219734192,1.85916015625
1765999923114629000,3.086629150390625,-0.3607920110225677,0.4150826036930084,1.4404191970825195,1.877939697265625
1765999923142798000,3.114798095703125,-0.3061196208000183,0.4411970973014831,1.1647664308547974,1.9061086425781248
1765999923161577500,3.133577392578125,-0.2102138400077819,0.4294379353523254,0.9605848789215088,1.9248879394531249
1765999923180356900,3.15235693359375,0.0040469793602824,0.4039343297481537,0.790917158126831,1.94366748046875
1765999923199136300,3.17113623046875,0.3143662810325622,0.1305723488330841,0.6113229393959045,1.96244677734375
1765999923217915600,3.18991552734375,0.6161335110664368,-0.3727802336215973,0.4369210302829742,1.98122607421875
1765999923236695000,3.208695068359375,0.7940478324890137,-0.963639199733734,0.3090975880622864,2.0000056152343753
1765999923255474400,3.227474365234375,0.835281252861023,-1.374903917312622,0.1794415265321731,2.018784912109375
1765999923274253800,3.24625390625,0.7173843383789062,-1.399949312210083,-0.0337502807378768,2.0375644531250003
1765999923293033200,3.265033203125,0.404468834400177,-1.2927426099777222,-0.3510945439338684,2.05634375
1765999923311812600,3.2838125,-0.0793360620737075,-0.8826996088027954,-0.878728985786438,2.0751230468749995
1765999923330592000,3.302592041015625,-0.7906880974769592,-0.119271345436573,-1.6311616897583008,2.093902587890625
1765999923349371400,3.321371337890625,-1.467068076133728,0.7322741746902466,-2.003789186477661,2.1126818847656246
1765999923368150800,3.34015087890625,-1.0553452968597412,1.3889538049697876,-1.5036436319351196,2.13146142578125
1765999923386930400,3.358930419921875,-0.6880627870559692,1.0056360960006714,-1.0051779747009275,2.1502409667968747
1765999923405709600,3.37770947265625,-1.1127665042877195,0.8008437156677246,-0.7307469844818115,2.16902001953125
1765999923424489000,3.396489013671875,-0.9153045415878296,0.7431169748306274,-0.7191405892372131,2.1877995605468747
1765999923443268600,3.4152685546875,-0.6775254011154175,0.7596103549003601,-0.7107411623001099,2.2065791015625003
1765999923462047700,3.4340478515625,-0.5704713463783264,0.7342594861984253,-0.7273872494697571,2.2253583984375
1765999923480827400,3.452827392578125,-0.5388590693473816,0.7302888631820679,-0.7524327039718628,2.2441379394531253
1765999923499606800,3.471606689453125,-0.5167152285575867,0.7342594861984253,-0.6215549111366272,2.262917236328125
1765999923518386200,3.49038623046875,-0.4493674039840698,0.5690205693244934,-0.4459312856197357,2.2816967773437495
1765999923537165600,3.50916552734375,-0.3569740951061249,0.2138026654720306,-0.305585116147995,2.30047607421875
1765999923555945000,3.527945068359375,-0.3705658614635467,-0.0891862586140632,-0.2513708472251892,2.3192556152343746
1765999923574724400,3.546724365234375,-0.4366919696331024,-0.2579376399517059,-0.2246455252170562,2.338034912109375
1765999923593503700,3.565503662109375,-0.4174497127532959,-0.2159406989812851,-0.1971566081047058,2.3568142089843747
1765999923612283100,3.584283203125,-0.3555996716022491,-0.1240055486559867,-0.1782197952270507,2.37559375
1765999923631062500,3.6030625,-0.229150652885437,-0.2864955961704254,-0.0649043843150138,2.3943730468749997
1765999923649842000,3.621842041015625,-0.0332157723605632,-0.6385064125061035,0.1632536053657531,2.4131525878906253
1765999923668621300,3.640621337890625,0.3256672918796539,-1.135597586631775,0.5516108870506287,2.431931884765625
1765999923687400700,3.659400634765625,0.7158571481704712,-1.4592032432556152,1.063210129737854,2.4507111816406253
1765999923706180000,3.67818017578125,1.1364375352859497,-1.6624685525894165,1.5430444478988647,2.46949072265625
1765999923724959500,3.69695947265625,1.4479786157608032,-2.1386375427246094,1.8348851203918457,2.4882700195312495
1765999923743739000,3.71573876953125,1.475467562675476,-2.6170973777771,1.8283182382583616,2.50704931640625
1765999923762518300,3.734518310546875,1.1946223974227903,-2.53157639503479,1.5697697401046753,2.5258288574218746
1765999923781297400,3.75329736328125,0.5370265245437622,-1.5981749296188354,1.1552979946136477,2.54460791015625
1765999923800077000,3.7720771484375,-0.064828023314476,-0.0507017783820629,0.4938841760158539,2.5633876953124997
1765999923818856400,3.7908564453125,-0.4258491098880768,0.924238383769989,-0.0493273325264453,2.5821669921875
1765999923837635800,3.8096357421875,-0.9241620302200316,1.0619884729385376,-0.7061597108840942,2.6009462890624997
1765999923856415200,3.828415283203125,-1.3164899349212646,0.3520108163356781,-1.443168044090271,2.619725830078125
1765999923875194600,3.847194580078125,-1.6549090147018433,-1.046716809272766,-2.10992693901062,2.638505126953125
1765999923903363600,3.875363525390625,-1.927049279212952,-3.285536289215088,-2.930776596069336,2.666674072265625
1765999923922143200,3.894143310546875,-1.7247003316879272,-3.5688247680664062,-3.551873207092285,2.6854538574218747
1765999923940922400,3.91292236328125,-1.261664867401123,-2.863734006881714,-4.208552837371826,2.70423291015625
1765999923959701800,3.93170166015625,-0.8569669127464294,-1.8759657144546509,-4.7013678550720215,2.7230122070312497
1765999923978481400,3.9504814453125,-0.537790060043335,-0.7493783831596375,-4.816821575164795,2.7417919921875002
1765999923997260500,3.969260498046875,-0.5929206013679504,0.448985606431961,-2.6526803970336914,2.7605710449218748
1765999924016040200,3.988040283203125,-1.8377103805541992,5.273900985717773,-2.6555819511413574,2.7793508300781253
1765999924034819600,4.006819580078125,0.2042579054832458,2.8038692474365234,-3.274387836456299,2.798130126953125
1765999924053599000,4.025598876953125,1.5435789823532104,-1.2099703550338743,-2.805091142654419,2.8169094238281245
1765999924072378400,4.04437841796875,0.6408734917640686,-3.626856803894043,-1.7186681032180786,2.83568896484375
1765999924091157800,4.06315771484375,1.3183225393295288,-5.307804107666016,-0.8985821008682251,2.8544682617187496
1765999924109937200,4.081937255859375,2.104963779449463,-4.1561713218688965,-0.2038761228322982,2.873247802734375
1765999924128716500,4.100716552734375,2.0838887691497803,-1.8434371948242188,0.5974257588386536,2.8920270996093747
1765999924147496000,4.119495849609375,1.6736931800842283,0.477238118648529,1.131779670715332,2.910806396484375
1765999924166275300,4.138275390625,1.3117557764053345,2.3063199520111084,1.389106512069702,2.9295859374999997
1765999924185054700,4.1570546875,1.1223876476287842,3.1975717544555664,1.512959361076355,2.9483652343749993
1765999924203834000,4.175834228515625,1.0179297924041748,2.911992311477661,1.6114612817764282,2.967144775390625
1765999924222613500,4.194613525390625,0.9469167590141296,1.736383080482483,1.6972877979278564,2.9859240722656244
