time,seconds_elapsed,z,y,x,t
1765999929358782500,9.330782470703124,0.8516218662261963,0.9250019788742064,0.9711222648620604,8.122093017578123
1765999929377561900,9.349561767578123,0.7850375771522522,1.5870267152786257,1.3768892288208008,8.140872314453123
1765999929396341200,9.36834130859375,0.7546470761299133,1.615279197692871,1.6804890632629397,8.15965185546875
1765999929415120600,9.38712060546875,0.829936146736145,1.2651009559631348,1.944993495941162,8.17843115234375
1765999929433900000,9.405900146484376,0.903239905834198,0.7269290685653687,2.1644465923309326,8.197210693359375
1765999929452679700,9.4246796875,0.8890373110771179,0.3339903056621551,2.3484697341918945,8.215990234374999
1765999929471459000,9.443458984375,0.7841212749481201,0.1782197952270507,2.503476619720459,8.23476953125
1765999929490238500,9.462238525390624,0.6509527564048767,0.2417497336864471,2.60900354385376,8.253549072265624
1765999929509017900,9.481017822265626,0.5324450135231018,0.4434878230094909,2.6641340255737305,8.272328369140626
1765999929527797200,9.49979736328125,0.4165334105491638,0.5986474752426147,2.648709774017334,8.29110791015625
1765999929546576600,9.51857666015625,0.3221548199653625,0.6085740327835083,2.584721565246582,8.309887207031249
1765999929565356000,9.53735595703125,0.2428951114416122,0.4367683231830597,2.489579439163208,8.32866650390625
1765999929584135400,9.556135498046874,0.1607337892055511,0.1944077163934707,2.375653028488159,8.347446044921874
1765999929602914800,9.574914794921876,0.1020907759666442,-0.1201876476407051,2.2252275943756104,8.366225341796875
1765999929621694500,9.593694580078123,0.0319940410554409,-0.4112647175788879,2.0500621795654297,8.385005126953123
1765999929640473900,9.612473876953125,-0.0246636662632226,-0.5723803043365479,1.844353437423706,8.403784423828125
1765999929659253200,9.631253173828124,-0.0678823515772819,-0.62857985496521,1.5653409957885742,8.422563720703124
1765999929678032600,9.65003271484375,-0.2248746007680893,-0.541989803314209,1.2689188718795776,8.44134326171875
1765999929696812000,9.66881201171875,-0.4736492931842804,-0.4251618981361389,0.9984585046768188,8.46012255859375
1765999929715591400,9.68759130859375,-0.668515145778656,0.4225656986236572,0.6267472505569458,8.47890185546875
1765999929734370800,9.706370849609376,-0.9507346749305724,2.042273759841919,-0.6795870661735535,8.497681396484376
1765999929753150500,9.725150390625,-1.0464876890182495,2.1224496364593506,-0.8666644096374512,8.5164609375
1765999929771929900,9.743929931640626,-0.1020907759666442,1.4181225299835205,-1.316413640975952,8.535240478515625
1765999929790709200,9.762709228515623,1.1430044174194336,-0.6716458201408386,-1.389106512069702,8.554019775390623
1765999929809488600,9.781488525390625,0.7457895278930664,-2.078009366989136,-0.8239038586616516,8.572799072265624
1765999929828268000,9.80026806640625,0.1071304082870483,-2.1865904331207275,-0.1870773434638977,8.59157861328125
1765999929847047400,9.81904736328125,-0.4053851366043091,-1.3674207925796509,0.1857028901576995,8.61035791015625
1765999929865826800,9.837826904296875,-0.5739838480949402,-0.0090102553367614,-0.0303905233740806,8.629137451171875
1765999929884606200,9.856606201171877,-0.196774810552597,0.5094612240791321,-0.3138317763805389,8.647916748046876
1765999929903385900,9.8753857421875,0.1727983802556991,0.4622719287872314,-0.3460549116134643,8.6666962890625
1765999929922165200,9.894165283203124,0.1011744812130928,0.5618428587913513,-0.233503058552742,8.685475830078124
1765999929940944600,9.912944580078126,-0.1396589577198028,0.5516108870506287,-0.1514944583177566,8.704255126953125
1765999929959724000,9.93172412109375,-0.2048687785863876,0.3938550651073456,-0.1069013327360153,8.723034667968749
1765999929978503400,9.95050341796875,-0.0607046857476234,0.1209512278437614,-0.0467311553657054,8.74181396484375
1765999929997282800,9.96928271484375,0.0329103395342826,-0.061239194124937,0.0497854799032211,8.76059326171875
1765999930016062200,9.988062255859376,0.0643698796629905,-0.1333212405443191,0.1207985132932663,8.779372802734375
1765999930034841900,10.006841796875,0.0489455386996269,-0.1429423540830612,0.1224783882498741,8.798152343749999
1765999930053621200,10.025621337890623,0.0603992566466331,-0.1033888608217239,0.0836884751915931,8.816931884765623
1765999930072400600,10.044400634765625,0.1208748668432235,0.0319176837801933,0.0626136362552642,8.835711181640624
1765999930091180000,10.063179931640626,0.1860846877098083,0.1252272725105285,0.096669353544712,8.854490478515626
1765999930109959400,10.08195947265625,0.3207803666591644,0.2226602137088775,0.1353065520524978,8.87327001953125
1765999930128738800,10.10073876953125,0.4093557596206665,0.1818849891424179,0.185550183057785,8.892049316406249
1765999930147518200,10.119518310546876,0.5359575152397156,-0.0007635809597559,0.2729038298130035,8.910828857421876
1765999930166297900,10.1382978515625,0.6112465858459473,-0.2044869810342788,0.3845393657684326,8.9296083984375
1765999930185077200,10.1570771484375,0.6987529397010803,-0.6800451874732971,0.4723511934280395,8.9483876953125
1765999930203856600,10.175856689453123,0.699821949005127,-1.1172716617584229,0.5447386503219604,8.967167236328123
1765999930222636000,10.194635986328125,0.5005273222923279,-1.26189386844635,0.5763509273529053,8.985946533203125
1765999930241415400,10.21341552734375,0.2468657344579696,-1.1713331937789917,0.5739074349403381,9.00472607421875
1765999930260194800,10.23219482421875,0.0405461490154266,-0.722347617149353,0.4766272306442261,9.02350537109375
1765999930278974200,10.25097412109375,-0.1943313628435135,0.194713145494461,0.1108719557523727,9.04228466796875
1765999930297753900,10.26975390625,-0.5947532057762146,0.99968022108078,-0.3573558926582336,9.061064453124999
1765999930316533200,10.288533203125,-1.0461822748184204,1.3029745817184448,-0.8208495378494263,9.07984375
1765999930335312600,10.307312744140624,-1.3407717943191528,1.0926843881607056,-1.3729186058044434,9.098623291015624
1765999930354092000,10.326092041015626,-1.3821579217910769,0.3944659233093261,-1.8895574808120728,9.117402587890625
1765999930372871400,10.344871337890623,-1.459737777709961,-0.813060998916626,-2.3425137996673584,9.136181884765623
1765999930391650800,10.36365087890625,-1.4142283201217651,-2.03112530708313,-2.738048553466797,9.15496142578125
1765999930410430200,10.38243017578125,-1.0373247861862185,-2.3200645446777344,-3.0491316318511963,9.17374072265625
1765999930429209600,10.401209716796876,-0.5695550441741943,-1.7579160928726196,-3.400378704071045,9.192520263671875
1765999930447989200,10.4199892578125,-0.3210858106613159,-1.005788803100586,-3.590357780456543,9.2112998046875
1765999930466768600,10.4387685546875,-0.4208094775676727,-1.2939642667770386,-2.5112650394439697,9.2300791015625
1765999930485548000,10.457548095703125,-0.7132610082626343,0.4141663312911987,-1.8365650177001955,9.248858642578124
1765999930504327400,10.476327392578124,-0.114460788667202,2.4736969470977783,-2.4231479167938232,9.267637939453124
1765999930523106800,10.49510693359375,0.6440805792808533,1.6656755208969116,-2.1890339851379395,9.28641748046875
1765999930541886200,10.51388623046875,0.3930151164531708,0.8286380767822266,-1.8202242851257324,9.305196777343749
1765999930560665600,10.53266552734375,0.42798712849617,0.1814268380403518,-1.4437788724899292,9.32397607421875
1765999930579445200,10.5514453125,0.8407790064811707,-0.4176788032054901,-1.1756092309951782,9.342755859375
1765999930598224600,10.570224609375,1.005865216255188,-0.8127555847167969,-0.744491457939148,9.36153515625
1765999930617004000,10.589004150390624,0.9090431332588196,-0.7101303339004517,-0.1154534444212913,9.380314697265623
1765999930635783400,10.607783447265623,0.8094722032546997,0.0204639695584774,0.4795288443565368,9.399093994140623
1765999930654562800,10.626562744140625,0.6894372701644897,0.9419534802436828,0.8767436742782593,9.417873291015624
1765999930673342200,10.64534228515625,0.5918515920639038,1.5118902921676636,1.158657789230347,9.43665283203125
1765999930692121600,10.66412158203125,0.5264890789985657,1.5752675533294678,1.3810125589370728,9.45543212890625
1765999930710901200,10.6829013671875,0.4913643598556518,1.2667808532714844,1.5865685939788818,9.474211914062499
1765999930729680600,10.7016806640625,0.4974730014801025,0.8019127249717712,1.7970114946365356,9.4929912109375
1765999930748460000,10.7204599609375,0.4716639816761017,0.4466948807239532,1.9666792154312132,9.5117705078125
1765999930767239400,10.739239501953126,0.4266127049922943,0.2970330119132995,2.0963351726531982,9.530550048828125
1765999930786018800,10.758018798828124,0.345062255859375,0.2515235841274261,2.162766695022583,9.549329345703123
1765999930804798200,10.776798095703125,0.2187659442424774,0.370184063911438,2.249051332473755,9.568108642578125
1765999930823577600,10.79557763671875,0.0854447111487388,0.3297142684459686,2.355799913406372,9.58688818359375
1765999930842357000,10.81435693359375,0.0494036898016929,0.1800523996353149,2.33105993270874,9.60566748046875
1765999930861136600,10.83313671875,0.0184023007750511,-0.016951497644186,2.1723878383636475,9.624447265625
1765999930879916000,10.851916015625,-0.1060613989830017,-0.2199113219976425,1.9709552526474,9.643226562499999
1765999930898695400,10.8706953125,-0.2424369603395462,-0.4735729098320007,1.7256929874420166,9.662005859375
1765999930917474800,10.889474853515624,-0.2903898358345032,-0.790000855922699,1.466075420379639,9.680785400390624
1765999930936254200,10.908254150390626,-0.2439641207456588,-1.0421353578567505,1.253036379814148,9.699564697265625
1765999930955033600,10.92703369140625,-0.1866955459117889,-1.082757830619812,1.001665472984314,9.718344238281249
1765999930973813200,10.945813232421877,-0.208381250500679,-1.0696241855621338,0.6974548697471619,9.737123779296876
1765999930992592600,10.964592529296874,-0.3047451674938202,-1.0980294942855835,0.3833176493644714,9.755903076171874
1765999931011372000,10.9833720703125,-0.4023308157920837,-1.0861176252365112,0.090866133570671,9.7746826171875
1765999931030151400,11.0021513671875,-0.4551706314086914,-1.1184934377670288,-0.1417206227779388,9.7934619140625
1765999931048930800,11.020930908203123,-0.4591412544250488,-1.222645878791809,-0.2641990184783935,9.812241455078123
1765999931067710200,11.039710205078125,-0.451047271490097,-0.9376774430274964,-0.3304778337478637,9.831020751953124
1765999931086489600,11.058489501953124,-0.2537379562854767,-0.0946840420365333,-0.6104066371917725,9.849800048828124
1765999931105269200,11.077269287109376,0.194025918841362,-0.148592859506607,-0.4873173832893371,9.868579833984375
1765999931124048600,11.096048583984375,0.6123155951499939,-0.2887863218784332,-0.6754637360572815,9.887359130859375
1765999931142828000,11.114828125,0.8065705895423889,-0.6210967898368835,-0.8071050643920898,9.906138671875
1765999931161607400,11.133607421875,0.4967094361782074,-0.9847140312194824,-0.5847502946853638,9.92491796875
1765999931180386800,11.15238671875,0.1885281354188919,-1.0337358713150024,-0.2020435184240341,9.943697265625
1765999931199166200,11.171166259765624,-0.0457384996116161,-0.4836521744728088,0.0407752245664596,9.962476806640623
1765999931217945900,11.18994580078125,-0.1141553521156311,0.2632827162742615,-0.0080939587205648,9.981256347656249
1765999931236725200,11.208725341796876,-0.001450803829357,0.4355465769767761,-0.11743875592947,10.000035888671876
1765999931255504600,11.227504638671874,0.070631243288517,0.2744309902191162,-0.1487455666065216,10.018815185546874
1765999931274284000,11.246283935546876,-0.0028252496849745,0.2406807243824005,-0.1153007298707962,10.037594482421875
1765999931293063400,11.2650634765625,-0.0895680487155914,0.2144135385751724,-0.1055268943309784,10.056374023437499
1765999931311842800,11.2838427734375,-0.1306487023830413,0.2854265570640564,-0.0928514450788497,10.0751533203125
1765999931330622200,11.302622314453124,-0.1547778695821762,0.3990474045276642,-0.0581848695874214,10.093932861328124
