time,seconds_elapsed,z,y,x,t
1765999933412792600,13.38479248046875,2.083279848098755,0.1997432708740234,1.3554834127426147,12.17845068359375
1765999933431572000,13.403572021484376,1.4850319623947144,0.8723917007446289,3.4201440811157227,12.197230224609376
1765999933450351400,13.422351318359375,1.8031777143478396,1.4992332458496094,4.0199408531188965,12.216009521484375
1765999933469130800,13.441130859375,1.811897873878479,2.784377098083496,2.9805984497070312,12.2347890625
1765999933487910100,13.45991015625,0.8556458950042725,4.980510711669922,0.606737494468689,12.253568359375
1765999933506689800,13.478689697265626,1.249309778213501,5.395776748657227,-1.144244909286499,12.272347900390626
1765999933525469200,13.49746923828125,0.4711790680885315,3.4404726028442383,-1.417937994003296,12.29112744140625
1765999933544248600,13.51624853515625,-1.0089216232299805,2.522860527038574,-0.2745143175125122,12.30990673828125
1765999933563028000,13.535028076171876,-2.678921937942505,2.514767646789551,2.973864793777466,12.328686279296877
1765999933581807400,13.553807373046874,-1.2288137674331665,1.0459108352661133,7.100950717926025,12.347465576171874
1765999933600587000,13.5725869140625,-3.638461709022522,-4.043320655822754,6.099789619445801,12.3662451171875
1765999933619366400,13.591366455078123,-4.598001480102539,-3.7839860916137695,-2.481755256652832,12.385024658203124
1765999933638145800,13.610145751953125,-5.36397647857666,0.8128337860107422,-4.359745502471924,12.403803955078125
1765999933656925200,13.62892529296875,-2.7782554626464844,-3.4863667488098145,2.55674147605896,12.42258349609375
1765999933675704600,13.64770458984375,-4.669448852539063,-4.357985973358154,1.559645175933838,12.44136279296875
1765999933694484200,13.666484130859375,-4.846274375915527,-1.591285228729248,-0.6444768905639648,12.460142333984376
1765999933713263600,13.685263671875,-3.744953393936157,-1.8756308555603027,-0.8946124911308289,12.478921875
1765999933732043000,13.70404296875,-2.430655002593994,-2.9480419158935547,-1.22084379196167,12.497701171875
1765999933750822400,13.722822509765624,-2.6781883239746094,-2.2446651458740234,-0.9068880081176758,12.516480712890624
1765999933769601800,13.741601806640626,-3.249647378921509,-1.7294001579284668,0.0821318626403808,12.535260009765626
1765999933788381400,13.76038134765625,-2.951632261276245,-1.5075740814208984,1.217599630355835,12.55403955078125
1765999933807160800,13.779160888671877,-2.3984062671661377,-0.6339902877807617,1.229465365409851,12.572819091796877
1765999933825940200,13.797940185546874,-1.7728302478790283,-0.003087043762207,0.6337963938713074,12.591598388671875
1765999933844719600,13.8167197265625,-1.405543327331543,0.2086410522460937,-0.1809948682785034,12.6103779296875
1765999933863499300,13.835499267578124,-1.1292911767959597,0.030379295349121,-0.9218869209289552,12.629157470703124
1765999933882278700,13.854278564453123,-0.7999353408813477,-0.0061168670654296,-0.6927902698516846,12.647936767578123
1765999933901058000,13.87305810546875,-0.6684716939926147,0.3016004562377929,-0.037544846534729,12.66671630859375
1765999933919837400,13.89183740234375,0.4645237922668457,1.8933019638061523,-0.0959384441375732,12.68549560546875
1765999933938616800,13.910616943359376,-0.10197395086288452,5.430294990539551,-1.9271811246871948,12.704275146484376
1765999933957396200,13.929396240234375,1.867105722427368,2.946845054626465,-6.239809989929199,12.723054443359375
1765999933976175900,13.94817578125,-1.8983209133148196,-0.4909582138061523,-7.635497093200684,12.741833984375
1765999933994955300,13.966955322265624,-0.3487335443496704,-0.7682456970214844,-2.489581346511841,12.760613525390625
1765999934013734700,13.985734619140626,-0.2652201652526855,-1.6923823356628418,-1.0567071437835691,12.779392822265626
1765999934032514000,14.00451416015625,-0.6904091835021973,-0.6442661285400391,-2.0375115871429443,12.79817236328125
1765999934051293700,14.023293701171877,-0.5630860328674316,0.0195693969726562,-1.5757081508636477,12.816951904296877
1765999934070073000,14.042072998046876,-0.4902299642562866,-1.029510498046875,-1.334477424621582,12.835731201171876
1765999934088852500,14.0608525390625,-0.1034867763519287,-1.4227943420410156,-0.8651230335235596,12.8545107421875
1765999934107631900,14.0796318359375,0.0741720199584961,-0.7737588882446289,-0.6939105987548828,12.8732900390625
1765999934126411300,14.098411376953123,0.62363600730896,-0.0287666320800781,-0.5458626747131348,12.892069580078124
1765999934145191000,14.11719091796875,1.1729576587677002,0.5461435317993164,-0.1387059688568115,12.91084912109375
1765999934163970300,14.13597021484375,1.662614345550537,0.3151664733886719,-0.5347352027893066,12.92962841796875
1765999934182749700,14.154749755859376,-0.5784497261047363,-4.495420932769775,-3.880323648452759,12.948407958984376
1765999934201529000,14.173529052734375,1.2985310554504397,1.1641016006469729,4.410638809204102,12.967187255859375
1765999934220308700,14.192308837890623,-0.2909097671508789,5.363949775695801,4.264932632446289,12.985967041015623
1765999934239088000,14.211088134765625,0.0949814319610595,2.10933780670166,0.992095112800598,13.004746337890625
1765999934257867500,14.229867431640624,0.8004038333892822,0.0824851989746093,-1.1566007137298584,13.023525634765624
1765999934276647000,14.24864697265625,1.001413106918335,0.396524429321289,-2.5865354537963867,13.04230517578125
1765999934295426600,14.267426513671875,0.5576939582824707,0.4047222137451172,-1.0578899383544922,13.061084716796875
1765999934314206000,14.2862060546875,-0.2746767997741699,-0.1939764022827148,1.0593258142471311,13.0798642578125
1765999934332985300,14.3049853515625,-0.3305227756500244,-1.2863984107971191,0.736247181892395,13.0986435546875
1765999934351764700,14.3237646484375,-0.4945909976959228,-1.1710691452026367,0.4669439792633056,13.1174228515625
1765999934370544000,14.342544189453124,-0.3104734420776367,-1.0682573318481443,0.0287933349609375,13.136202392578124
1765999934389323800,14.36132373046875,-0.3588285446166992,-0.1993217468261718,0.3851509094238281,13.154981933593751
1765999934408103200,14.380103271484376,-1.3460749387741089,1.6416988372802734,1.980762720108032,13.173761474609377
1765999934426882600,14.398882568359374,-0.6497464179992676,1.2578811645507812,-0.1886136531829834,13.192540771484374
1765999934445662000,14.417661865234376,0.132080078125,1.466538429260254,-1.5221290588378906,13.211320068359376
1765999934464441600,14.436441650390623,1.1488745212554932,0.0329866409301757,-0.3560948371887207,13.230099853515624
1765999934483221000,14.455220947265625,0.7312300205230713,0.1324939727783203,0.766897439956665,13.248879150390625
1765999934502000400,14.47400048828125,0.4045422077178955,0.6454353332519531,1.3478622436523438,13.26765869140625
1765999934520779800,14.49277978515625,0.0785870552062988,0.6869354248046875,1.813687086105347,13.28643798828125
1765999934539559400,14.511559326171875,0.1437602043151855,-0.7479677200317383,0.1379709243774414,13.305217529296876
1765999934558338800,14.5303388671875,0.3007862567901611,-2.1520891189575195,-0.297147274017334,13.3239970703125
1765999934577118200,14.5491181640625,0.5340328216552734,-2.1908206939697266,-0.8006596565246582,13.3427763671875
1765999934595897600,14.567897705078124,0.8491566181182861,0.0470199584960937,-2.7902777194976807,13.361555908203124
1765999934614677000,14.586677001953126,-0.0908601284027099,1.104169845581055,-2.3268091678619385,13.380335205078126
1765999934633456600,14.60545654296875,-0.2266159057617187,0.0163803100585937,-1.1185829639434814,13.39911474609375
1765999934652236000,14.624236083984377,-0.035637617111206,-1.306899070739746,-0.9756917953491212,13.417894287109377
1765999934671015400,14.643015380859374,0.1112885475158691,-1.2382402420043943,-0.0311644077301025,13.436673583984375
1765999934689794800,14.661794921875,-0.3496055603027344,1.6379384994506836,1.370750904083252,13.455453125
1765999934708574500,14.680574462890624,-1.2375792264938354,3.6821060180664062,1.897381901741028,13.474232666015624
1765999934727353900,14.699353759765623,-0.4040714502334595,1.739919662475586,0.3973115682601928,13.493011962890623
1765999934746133200,14.71813330078125,-0.2118971347808838,-0.0590829849243164,-0.429863691329956,13.51179150390625
1765999934764912600,14.73691259765625,-0.035876989364624,-1.0825119018554688,-0.6446216106414795,13.53057080078125
1765999934783692300,14.7556923828125,-0.2293200492858886,-0.8706445693969727,0.1928226947784423,13.5493505859375
1765999934802471700,14.7744716796875,-0.4794870615005493,0.8607997894287109,0.8564126491546631,13.5681298828125
1765999934821251000,14.7932509765625,-0.665036678314209,1.2836179733276367,0.5845818519592285,13.5869091796875
1765999934840030500,14.812030517578124,0.2568180561065674,0.0696239471435546,-0.8108310699462891,13.605688720703125
1765999934858809900,14.830809814453126,0.4271266460418701,-1.182997703552246,-0.6079704761505127,13.624468017578126
1765999934877589500,14.849589599609375,-0.01005220413208,-1.6404094696044922,-0.041664719581604,13.643247802734376
1765999934896369000,14.868368896484377,-0.0317602157592773,-0.7140483856201172,0.3779746294021606,13.662027099609377
1765999934915148300,14.887148193359376,0.2530591487884521,-0.092254638671875,0.9038040637969972,13.680806396484376
1765999934933927700,14.905927734375,0.4630682468414306,-0.3483362197875976,0.0757985115051269,13.6995859375
1765999934952707300,14.924707275390626,0.4916625022888183,-0.8134193420410156,-0.2927310466766357,13.718365478515626
1765999934971486700,14.94348681640625,0.0974128246307373,-0.7238187789916992,0.1531237363815307,13.73714501953125
1765999934990266000,14.96226611328125,0.1320616006851196,0.2824001312255859,0.7020504474639893,13.75592431640625
1765999935009045500,14.98104541015625,-0.4640167951583862,0.4612884521484375,0.234787106513977,13.77470361328125
1765999935027825200,14.9998251953125,-0.6877415180206299,0.4548654556274414,0.8109341859817505,13.7934833984375
1765999935046604500,15.0186044921875,-0.5330631732940674,0.0017127990722656,0.178891897201538,13.8122626953125
1765999935065384000,15.037384033203123,-0.3885213136672973,0.0994338989257812,-0.4271392822265625,13.831042236328123
1765999935084163600,15.05616357421875,-0.1807351112365722,0.2784299850463867,-0.8572486639022827,13.84982177734375
1765999935102943000,15.07494287109375,-0.318150520324707,0.6894912719726562,-0.250567078590393,13.86860107421875
1765999935121722400,15.093722412109376,-0.5286949872970581,1.2060861587524414,0.517565131187439,13.887380615234376
1765999935140501800,15.112501708984375,-0.4964820146560669,0.5821552276611328,0.8604855537414551,13.906159912109375
1765999935159281400,15.131281494140625,-0.4592339992523193,0.5825481414794922,0.8113282322883606,13.924939697265625
1765999935178060800,15.150060791015624,-0.3959232568740845,0.891575813293457,0.8668462038040161,13.943718994140625
1765999935196840200,15.168840087890626,-0.444517970085144,1.4523792266845703,0.6825175285339355,13.962498291015626
1765999935215619600,15.18761962890625,-0.3707294464111328,1.0049962997436523,0.1948451995849609,13.98127783203125
1765999935234399200,15.206399169921877,-0.016686201095581,0.4161176681518554,0.7525550723075867,14.000057373046877
1765999935253178600,15.2251787109375,-0.4154075384140014,1.5807790756225586,1.0860012769699097,14.0188369140625
1765999935271958000,15.2439580078125,-0.2270435094833374,0.4574899673461914,-0.1177921295166015,14.0376162109375
1765999935290737400,15.2627373046875,-0.2166203260421753,0.3171148300170898,-0.95527184009552,14.0563955078125
1765999935309517000,15.28151708984375,-0.3052033185958862,1.0338268280029297,-0.7834798097610474,14.07517529296875
1765999935328296400,15.30029638671875,0.1812180280685424,0.4309473037719726,-0.6087312698364258,14.09395458984375
1765999935347075800,15.319075927734374,0.3822516202926636,0.1068029403686523,0.9588603973388672,14.112734130859375
1765999935365855200,15.337855224609376,0.1895828247070312,0.3654489517211914,1.519832730293274,14.131513427734376
1765999935384635000,15.356634765625,0.355538010597229,-0.1636285781860351,1.0067083835601809,14.15029296875
