time,seconds_elapsed,z,y,x,t
1765999942483274500,22.4552744140625,1.316763401031494,-0.8838138580322266,1.5519802570343018,21.2489326171875
1765999942511443700,22.483443603515624,-0.0962933301925659,-1.4017410278320312,2.4112727642059326,21.277101806640623
1765999942530223400,22.50222338867188,-1.266478419303894,-0.8470535278320312,1.9247841835021973,21.295881591796878
1765999942549002800,22.521002685546875,-0.4149681329727173,-0.4221944808959961,2.52103853225708,21.314660888671874
1765999942567782400,22.539782470703123,0.9215928316116332,0.3256711959838867,2.190675973892212,21.33344067382812
1765999942586561800,22.558561767578126,1.3171284198760986,0.2773027420043945,0.5851786136627197,21.352219970703125
1765999942614731000,22.58673095703125,0.6121690273284912,0.551793098449707,-0.8095901608467102,21.38038916015625
1765999942633510400,22.60551049804688,0.0666449218988418,0.6361112594604492,-0.9631327390670776,21.399168701171877
1765999942652290000,22.6242900390625,-1.752655029296875,1.1327695846557615,0.3476694524288177,21.4179482421875
1765999942671069400,22.6430693359375,-3.3287954330444336,1.742753982543945,2.961277484893799,21.4367275390625
1765999942689848800,22.66184887695313,-3.2870938777923584,2.169252395629883,4.278189659118652,21.455507080078128
1765999942708628500,22.68062841796875,-5.814224243164063,-3.407382011413574,0.6383922100067139,21.47428662109375
1765999942727407900,22.699407958984374,-2.636679649353028,2.4529294967651367,-3.2618296146392822,21.493066162109372
1765999942746187300,22.718187255859377,-0.5920028686523438,5.06068229675293,3.8669514656066895,21.511845458984375
1765999942774356500,22.7463564453125,2.919474601745605,-0.8902149200439453,3.667692422866821,21.5400146484375
1765999942793136000,22.76513623046875,-0.0976486206054687,-1.2789793014526367,-0.3398061692714691,21.55879443359375
1765999942811915500,22.78391552734375,-3.070354461669922,1.0506258010864258,-2.981630563735962,21.57757373046875
1765999942830695200,22.802695068359377,-4.942023277282715,1.2370853424072266,-3.194076538085937,21.596353271484375
1765999942849474600,22.821474609375,-4.813486099243164,-0.1485328674316406,-2.689962863922119,21.615132812499997
1765999942868254000,22.84025390625,-4.333354949951172,-0.3921470642089844,-1.0736453533172607,21.633912109374997
1765999942887033600,22.85903369140625,-3.8645172119140634,-1.0671563148498535,-0.6426555514335632,21.652691894531248
1765999942905813000,22.87781298828125,-3.2817459106445312,-1.1576042175292969,-1.2916899919509888,21.671471191406248
1765999942933982200,22.905982177734376,-2.5869176387786865,-1.0390501022338867,-1.048245191574097,21.699640380859375
1765999942952761600,22.92476171875,-1.8162147998809812,-0.8926973342895508,-1.3130658864974976,21.718419921874997
1765999942971541200,22.943541259765624,-1.1677967309951782,-0.3760805130004883,-1.5473302602767944,21.737199462890622
1765999942990320600,22.962320556640623,-0.7430930137634277,-0.3610754013061523,-1.2480472326278689,21.755978759765622
1765999943018489900,22.99048974609375,-0.03391695022583,-0.752899169921875,-0.0787920951843261,21.78414794921875
1765999943037269200,23.009269287109376,0.0806552171707153,-0.7203388214111328,0.3262953758239746,21.802927490234374
1765999943056049000,23.028048828125,0.5869021415710449,-0.1088008880615234,0.2137690782546997,21.82170703125
1765999943074828300,23.046828369140623,0.7348520755767822,0.1913490295410156,-0.237242043018341,21.840486572265622
1765999943102997500,23.07499755859375,0.6614713668823242,0.2908735275268554,-0.311191976070404,21.86865576171875
1765999943121777200,23.093777099609376,0.5297393798828125,-0.1496381759643554,0.2551568150520324,21.887435302734374
1765999943140556500,23.112556640625,0.7960217595100403,-0.7984371185302734,0.910991072654724,21.90621484375
1765999943159336000,23.1313359375,1.2693774700164795,-0.2224159240722656,0.6485453248023987,21.924994140625
1765999943187505200,23.159505126953125,0.2905700206756592,-0.1729536056518554,1.0275917053222656,21.953163330078123
1765999943206284800,23.178284912109376,0.0995985269546508,-0.3539209365844726,1.8882219791412356,21.971943115234374
1765999943225064200,23.197064208984376,0.1901317834854126,-0.4596014022827148,2.3557071685791016,21.990722412109374
1765999943243843600,23.21584350585937,-0.1732387542724609,0.167999267578125,2.261564254760742,22.00950170898437
1765999943262623200,23.234623291015627,-0.1001332998275756,1.5137434005737305,1.9811179637908936,22.028281494140625
1765999943281402600,23.253402587890623,0.924511194229126,-0.2133712768554687,0.3898107409477234,22.04706079101562
1765999943300182300,23.272182373046878,1.0480053424835205,-0.9203052520751952,-2.104081392288208,22.065840576171876
1765999943318961700,23.290961669921877,0.1647621989250183,0.2664976119995117,-2.527548313140869,22.084619873046876
1765999943337741000,23.309740966796877,-0.3416658639907837,1.084115982055664,-2.1201415061950684,22.103399169921875
1765999943356520700,23.328520751953125,-0.1212282180786132,1.136810302734375,-2.747638702392578,22.122178955078123
1765999943375300000,23.347300048828124,0.0923726558685302,1.0141935348510742,-2.9602322578430176,22.140958251953123
1765999943394079500,23.36607958984375,0.4205623865127563,1.1972990036010742,-1.9083068370819087,22.15973779296875
1765999943412859100,23.384859130859372,0.7048877477645874,1.1048564910888672,-1.0223733186721802,22.17851733398437
1765999943431638500,23.40363842773437,0.7081528306007385,0.6914100646972656,-0.7126154899597168,22.19729663085937
1765999943459807700,23.431807861328124,0.853735089302063,0.335606575012207,-0.5051090717315674,22.225466064453123
1765999943478587400,23.45058740234375,0.8595409989356995,0.2410469055175781,-0.8629062175750732,22.24424560546875
1765999943497366800,23.46936669921875,0.9765949249267578,0.0248498916625976,-1.0190324783325195,22.263024902343748
1765999943525536000,23.49753588867188,0.7836732864379883,0.0400991439819335,0.1909610629081726,22.29119409179688
1765999943544315400,23.5163154296875,0.5954431891441345,0.3360347747802734,0.8382119536399841,22.309973632812497
1765999943563095000,23.535094970703124,0.4919642210006714,0.3910608291625976,0.9368816614151,22.328753173828122
1765999943591264300,23.56326416015625,0.3953232169151306,0.0108051300048828,0.8690913319587708,22.35692236328125
1765999943610043600,23.58204370117188,0.2408195436000824,0.0585432052612304,0.6688388586044312,22.37570190429688
1765999943628823000,23.60082299804688,0.3914666175842285,-0.2215900421142578,0.2683160305023193,22.394481201171878
1765999943647602700,23.619602783203124,0.4000963568687439,-0.4930887222290039,-0.0300797224044799,22.413260986328122
1765999943666382000,23.638382080078124,0.312954694032669,-0.5800056457519531,-0.4297659397125244,22.432040283203122
1765999943685161700,23.65716162109375,0.2506418824195862,-0.4334430694580078,-0.6949930191040039,22.450819824218748
1765999943703941000,23.67594116210937,0.293951153755188,-0.2859439849853515,-0.8332934379577637,22.46959936523437
1765999943722720500,23.69472045898437,0.2915610671043396,-0.3507318496704101,-1.0456781387329102,22.48837866210937
1765999943741500200,23.713500244140626,0.0635515451431274,-0.4319744110107422,-0.871111273765564,22.507158447265624
1765999943760279600,23.732279541015625,-0.3231602907180786,-0.3811969757080078,-0.3094558715820312,22.525937744140624
1765999943788448800,23.76044873046875,-0.9061825275421144,-0.0107555389404296,0.6892001628875732,22.554106933593747
1765999943807228400,23.779228515625,-1.39930260181427,0.3379993438720703,1.264033555984497,22.57288671875
1765999943826007800,23.7980078125,-1.338765025138855,0.3586187362670898,1.4420251846313477,22.591666015624998
1765999943844787200,23.816787109375,-1.1430909633636477,0.1359272003173828,1.5876680612564087,22.610445312499998
1765999943863566800,23.83556689453125,-0.8608201742172241,-0.8462486267089844,0.7167084813117981,22.62922509765625
1765999943891736000,23.86373608398437,-0.3997228741645813,0.2905941009521484,0.2922332286834717,22.65739428710937
1765999943910515500,23.88251538085937,0.2523986101150512,-0.0036878585815429,-0.3918070793151855,22.67617358398437
1765999943929295000,23.901295166015625,0.9958463311195374,0.2449073791503906,-0.9140347242355348,22.694953369140624
1765999943957464300,23.92946435546875,2.3450701236724854,0.2495584487915039,-2.146973133087158,22.723122558593747
1765999943976243700,23.94824365234375,2.2678847312927246,-0.0590219497680664,-3.786172866821289,22.741901855468747
1765999943995023000,23.96702319335937,2.376697540283203,-0.1145238876342773,-5.515420913696289,22.76068139648437
1765999944013802800,23.985802734375,2.852799892425537,-0.1384210586547851,-4.873666286468506,22.779460937499998
1765999944032582100,24.00458203125,3.870513200759888,0.0178184509277343,-2.581049919128418,22.798240234374997
1765999944051361800,24.02336181640625,2.4560582637786865,0.7559232711791992,-0.9704796075820924,22.81702001953125
1765999944070141200,24.04214111328125,0.8918267488479614,1.1424283981323242,0.1357401013374328,22.83579931640625
1765999944088920600,24.06092065429688,-0.0435996055603027,0.4396724700927734,1.804420828819275,22.854578857421878
1765999944107700200,24.0797001953125,-0.1396278142929077,-0.7994041442871094,2.8469064235687256,22.8733583984375
1765999944126479600,24.098479736328127,-0.4342344999313354,0.0077400207519531,2.006253480911255,22.892137939453125
1765999944145259300,24.11725927734375,0.139561653137207,0.7050676345825195,0.9705625176429749,22.910917480468747
1765999944164038700,24.13603857421875,0.1873303651809692,0.9840660095214844,0.7715051770210266,22.92969677734375
1765999944182818000,24.154818115234374,-0.1832643151283264,0.670872688293457,1.5580146312713623,22.948476318359372
1765999944210987300,24.1829873046875,-0.1474724113941192,1.237680435180664,-0.038365751504898,22.9766455078125
1765999944229767000,24.201766845703126,0.0689906179904937,1.4589872360229492,0.0578082203865051,22.995425048828125
1765999944248546300,24.22054638671875,1.1585838794708252,1.2186861038208008,1.0520192384719849,23.014204589843747
1765999944267325700,24.23932568359375,-6.222508430480957,-2.57247257232666,-2.461078643798828,23.03298388671875
1765999944295495200,24.2674951171875,-6.210691452026367,3.65279769897461,1.7604138851165771,23.0611533203125
1765999944314274600,24.286274658203126,7.244565963745117,7.34329223632e-05,9.074971199035645,23.079932861328125
1765999944333054000,24.30505395507813,2.0019307136535645,-1.3287787437438965,6.350896835327148,23.098712158203128
1765999944351833600,24.32383349609375,-0.4918994903564453,-1.846853733062744,0.6844099164009094,23.11749169921875
1765999944370613000,24.342613037109373,-2.035127639770508,-0.2240877151489257,-2.022736072540283,23.13627124023437
1765999944389392600,24.361392578125,-2.378831148147583,0.759404182434082,-3.763429641723633,23.155050781249997
1765999944408172000,24.380172119140624,-2.597102165222168,1.7147455215454102,-1.9136613607406616,23.173830322265623
1765999944426951400,24.398951416015624,-3.693615436553955,1.371556282043457,-0.0540693998336792,23.192609619140622
1765999944445731000,24.41773095703125,-4.760573863983154,-0.0488414764404296,0.8578795194625854,23.211389160156248
1765999944464510500,24.436510498046875,-5.648073196411133,-0.6471834182739258,1.02364182472229,23.230168701171873
1765999944483289900,24.455289794921875,-5.557684898376465,-1.228867530822754,0.6357959508895874,23.248947998046873
1765999944502069500,24.47406958007813,-4.745038032531738,-1.1722230911254885,-0.5887192487716675,23.267727783203128
1765999944530238700,24.50223876953125,-3.441965103149414,-0.3893623352050781,-0.8561927080154419,23.295896972656248
1765999944549018000,24.52101806640625,-3.1954545974731445,-0.3769121170043945,-1.1018836498260498,23.314676269531247
1765999944567797800,24.5397978515625,-3.403262138366699,-0.1959171295166015,-0.594896137714386,23.3334560546875
1765999944586577200,24.5585771484375,-2.5602619647979736,-0.005868911743164,-0.4735711216926574,23.3522353515625
1765999944605356800,24.57735668945313,-1.8395994901657104,-0.1378192901611328,-0.8081783056259155,23.371014892578128
