time,seconds_elapsed,z,y,x,t
1765999946699270400,26.6712705078125,0.1233506202697753,0.0063543319702148,0.8120384216308594,25.4649287109375
1765999946718050000,26.690050048828127,-0.1211558580398559,-0.0506534576416015,0.6506397128105164,25.483708251953125
1765999946736829400,26.708829345703126,-0.3816468715667724,0.0539512634277343,0.3001595735549927,25.502487548828125
1765999946755608800,26.72760888671875,-0.6577073335647583,0.1118659973144531,-0.0912752449512481,25.521267089843747
1765999946774388500,26.746388427734374,-0.7515681385993958,-0.0527839660644531,-0.2710963189601898,25.540046630859372
1765999946793168000,26.76516796875,-0.5432301759719849,-0.0862493515014648,-0.2810351252555847,25.558826171874998
1765999946811947500,26.783947509765625,-0.4692354202270508,0.0318403244018554,-0.1901009380817413,25.577605712890623
1765999946830727000,26.802726806640624,-0.4277476072311401,0.1062602996826171,-0.0292027592658996,25.596385009765623
1765999946849506600,26.82150659179688,-0.3732593059539795,0.1190690994262695,0.2325074076652526,25.615164794921878
1765999946868286000,26.840285888671875,-0.3632749319076538,0.2685956954956054,0.4009616076946258,25.633944091796874
1765999946887065300,26.8590654296875,-0.2579283714294433,0.2311229705810547,0.2796899080276489,25.6527236328125
1765999946905845000,26.877844970703126,-0.2022653818130493,-0.0160932540893554,0.1896056532859802,25.671503173828125
1765999946924624400,26.89662426757813,-0.167044997215271,-0.0611953735351562,-0.0026069283485412,25.690282470703128
1765999946943404000,26.91540405273437,-0.0647670030593872,0.0715904235839843,-0.0063302516937255,25.70906225585937
1765999946962183400,26.934183349609373,-0.0088858604431152,0.14447021484375,-0.0290775895118713,25.727841552734372
1765999946980963000,26.952963134765625,0.1317788362503051,0.0799875259399414,-0.0651205778121948,25.746621337890623
1765999946999742500,26.971742431640624,0.3061935901641845,-0.146977424621582,-0.1650391817092895,25.765400634765623
1765999947018521900,26.99052197265625,0.5821852684020996,-0.3138570785522461,-0.3639117479324341,25.78418017578125
1765999947037301500,27.009301513671875,0.6954774856567383,-0.2470951080322265,-0.4386844038963318,25.802959716796874
1765999947056081000,27.028080810546875,0.6556186676025391,-0.185246467590332,-0.3465579748153686,25.821739013671873
1765999947074860500,27.046860595703127,0.6312229633331299,-0.3038043975830078,-0.2244337201118469,25.840518798828125
1765999947093640000,27.06563989257813,0.591392993927002,-0.2790660858154297,-0.0871481299400329,25.859298095703128
1765999947112419300,27.08441943359375,0.4558959007263183,-0.0931472778320312,-0.1237366199493408,25.87807763671875
1765999947131199000,27.103198974609374,0.3320045471191406,0.1100397109985351,-0.2200021147727966,25.896857177734372
1765999947149978400,27.121978271484377,0.2323963642120361,0.3450183868408203,-0.0852726697921752,25.915636474609375
1765999947168758000,27.140758056640625,-0.1089887619018554,0.3209753036499023,-0.1887426376342773,25.934416259765623
1765999947187537400,27.159537353515624,-0.2070796489715576,0.213663101196289,-0.3485608696937561,25.953195556640622
1765999947206316800,27.17831689453125,-0.0607964992523193,0.2096090316772461,-0.130928635597229,25.971975097656248
1765999947225096400,27.197096435546875,0.2181432247161865,0.3791980743408203,-0.2778346538543701,25.990754638671874
1765999947243875800,27.215875732421875,0.4659867286682129,0.0738782882690429,-0.1005644798278808,26.009533935546873
1765999947262655500,27.23465551757813,0.6779336929321289,-0.0264482498168945,0.1390431523323059,26.028313720703128
1765999947281435000,27.25343481445313,0.7536053657531738,0.0100030899047851,0.3747084736824035,26.047093017578128
1765999947300214500,27.272214599609374,0.9859495162963868,-0.1115303039550781,0.2558292150497436,26.065872802734372
1765999947318994000,27.290993896484373,1.3441495895385742,-0.4554557800292969,-0.3290460109710693,26.08465209960937
1765999947337773300,27.309773193359376,1.545686960220337,-0.5690298080444336,-0.8193179368972778,26.103431396484375
1765999947356553000,27.328552978515624,1.5970351696014404,-0.3533945083618164,-1.2956563234329224,26.122211181640623
1765999947375332400,27.347332275390624,1.644839882850647,-0.2497072219848632,-1.6077327728271484,26.140990478515622
1765999947394112000,27.366112060546875,1.4387651681900024,-0.2131423950195312,-1.94152307510376,26.159770263671874
1765999947412891400,27.384891357421875,1.3390579223632812,-0.1570911407470703,-2.190825939178467,26.178549560546873
1765999947431671000,27.403671142578126,1.5103342533111572,0.3184728622436523,-2.36893367767334,26.197329345703125
1765999947450450400,27.42245043945313,1.856141209602356,0.6977634429931641,-2.5046982765197754,26.216108642578128
1765999947469229800,27.441229736328125,1.8060963153839111,0.689274787902832,-2.340968132019043,26.234887939453124
1765999947488009500,27.460009521484373,1.1929951906204224,0.2051382064819336,-1.1517109870910645,26.25366772460937
1765999947506788900,27.478788818359376,0.6121389269828796,-0.032597541809082,0.1747491210699081,26.272447021484375
1765999947525568500,27.497568603515624,1.0124337673187256,-0.3217411041259765,1.1411373615264893,26.291226806640623
1765999947544348000,27.516347900390624,1.4895371198654177,-0.5617227554321289,2.065259456634521,26.310006103515622
1765999947563127600,27.53512744140625,1.8390945196151731,-0.8575897216796875,0.6577109098434448,26.328785644531248
1765999947581907000,27.553906982421875,1.9673058986663816,-0.4630231857299804,0.95675528049469,26.347565185546873
1765999947600686300,27.572686279296875,1.8266493082046509,0.2917165756225586,2.503009557723999,26.366344482421873
1765999947619466000,27.59146606445313,0.1621005535125732,0.8491430282592773,2.5798957347869877,26.385124267578128
1765999947638245400,27.61024536132813,-0.2020662426948547,1.1334457397460938,1.739426851272583,26.403903564453127
1765999947657025000,27.62902490234375,-0.5191923379898071,1.386920928955078,0.8079318404197693,26.42268310546875
1765999947675804400,27.647804443359377,-0.9590091109275818,2.1010189056396484,1.2070757150650024,26.441462646484375
1765999947694584000,27.666583984375,-1.519057273864746,2.3985490798950195,1.9231802225112915,26.460242187499997
1765999947713363500,27.685363525390624,-2.2419538497924805,2.1118202209472656,2.1517629623413086,26.479021728515622
1765999947732143000,27.70414306640625,-6.864816665649414,2.3985490798950195,-0.3839160203933716,26.497801269531248
1765999947750922500,27.722922607421875,-4.770541191101074,2.734548568725586,-3.4199016094207764,26.516580810546873
1765999947769702000,27.741701904296875,-3.8879761695861816,0.6049861907958984,3.129912137985229,26.535360107421873
1765999947788481500,27.7604814453125,1.3328609466552734,0.6049861907958984,2.7465107440948486,26.5541396484375
1765999947807261000,27.77926098632813,-0.8565554618835449,-3.376393318176269,2.6294095516204834,26.572919189453128
1765999947826040600,27.79804052734375,-3.5716021060943604,-0.913471221923828,-1.050217866897583,26.59169873046875
1765999947844820000,27.816820068359377,-5.403916358947754,-0.4672183990478515,-2.140329122543335,26.610478271484375
1765999947863599600,27.835599609375,-4.61923360824585,-2.1447715759277344,-0.9351657032966614,26.629257812499997
1765999947882379000,27.85437890625,-4.965262413024902,-1.6074261665344238,0.558303713798523,26.648037109374997
1765999947901158700,27.87315869140625,-5.211092472076416,-0.90673828125,0.8265758752822876,26.666816894531248
1765999947919938000,27.89193798828125,-5.685060501098633,-0.6737403869628906,0.2930367588996887,26.685596191406248
1765999947948107300,27.920107177734376,-4.869651794433594,-0.7128372192382812,-0.1227433383464813,26.713765380859375
1765999947966887000,27.938886962890624,-4.316856384277344,-0.5708103179931641,-0.2134940773248672,26.732545166015623
1765999947985666300,27.957666259765624,-4.096499443054199,-0.4967412948608398,-0.6201301217079163,26.751324462890622
1765999948004446000,27.976446044921875,-3.4621262550354004,0.0802259445190429,-1.5533974170684814,26.770104248046874
1765999948023225300,27.995225341796875,-3.055129051208496,0.4588918685913086,-1.7918095588684082,26.788883544921873
1765999948042005000,28.0140048828125,-2.8770499229431152,0.5942192077636719,-1.9825693368911743,26.8076630859375
1765999948060784400,28.03278442382813,-2.945076465606689,-0.2496757507324218,-0.6548642516136169,26.826442626953128
1765999948079563800,28.051563720703125,-2.7988944053649902,-0.7325420379638672,1.1241607666015625,26.845221923828124
1765999948098343400,28.070343505859373,-2.200343608856201,-0.1794281005859375,1.0922696590423584,26.86400170898437
1765999948117122800,28.089122802734376,-1.4306011199951172,1.4352378845214844,-0.8671190738677979,26.882781005859375
1765999948135902500,28.10790234375,0.8203954696655273,0.6279048919677734,-4.371225357055664,26.901560546874997
1765999948154681900,28.126681884765624,8.31777286529541,0.22281312942504877,-2.8803714513778687,26.920340087890622
1765999948173461500,28.14546142578125,3.071392059326172,1.0271897315979004,-4.40328311920166,26.939119628906248
1765999948192241000,28.164240966796875,1.3331236839294434,-0.9896116256713868,-1.3895175457000732,26.957899169921873
1765999948211020300,28.183020263671875,-1.3855555057525637,3.0439910888671875,1.326918601989746,26.976678466796873
1765999948229800000,28.20180004882813,1.2068934440612793,1.7677621841430664,-0.04467463493347168,26.995458251953128
1765999948248579300,28.22057934570313,2.646775484085083,-0.7506208419799805,1.2375385761260986,27.014237548828127
1765999948267359000,28.23935888671875,2.221421718597412,-0.8392543792724609,-1.326887845993042,27.03301708984375
1765999948286138400,28.258138427734377,2.0308985710144043,-0.5125160217285156,0.2120085060596466,27.051796630859375
1765999948304918000,28.27691796875,2.3545868396759038,-0.7811565399169922,0.3982496559619903,27.070576171874997
1765999948323697400,28.295697509765624,1.824091911315918,-0.8972053527832031,0.2603216767311096,27.089355712890622
1765999948342477000,28.31447705078125,1.073908805847168,-0.3396339416503906,0.5487070083618164,27.108135253906248
1765999948361256400,28.33325634765625,0.6761758327484131,0.1655120849609375,0.2010030448436737,27.126914550781247
1765999948380036000,28.3520361328125,0.6284151077270508,-0.1774320602416992,-0.4821300506591797,27.1456943359375
1765999948398815500,28.3708154296875,0.5443944931030273,-0.2631282806396484,-0.5102694630622864,27.1644736328125
1765999948417595000,28.38959497070313,0.4048004150390625,-0.0719251632690429,0.0111810564994812,27.183253173828128
1765999948436374500,28.40837451171875,0.2580134868621826,0.1260652542114257,0.4896348118782043,27.20203271484375
1765999948455154000,28.42715380859375,0.165940523147583,0.3314800262451172,0.5920025706291199,27.22081201171875
1765999948473933600,28.44593359375,-0.1485264301300048,0.4260683059692383,0.3018908500671386,27.239591796874997
1765999948492713000,28.464712890625,-0.4115068912506103,0.3423023223876953,-0.079747200012207,27.25837109375
1765999948511492600,28.48349267578125,-0.6585476398468018,0.1764612197875976,-0.2704715728759765,27.277150878906248
1765999948530272000,28.50227197265625,-0.7797228097915649,0.04168701171875,-0.462419331073761,27.295930175781248
1765999948549051400,28.521051513671875,-0.828762412071228,-0.1389684677124023,-0.5105629563331604,27.314709716796873
1765999948567831000,28.5398310546875,-0.8308920860290527,-0.4176959991455078,-0.4326948523521423,27.3334892578125
1765999948586610400,28.5586103515625,-0.4339525699615478,0.3190927505493164,0.3100471496582031,27.352268554687498
1765999948605390000,28.57739013671875,-0.130688190460205,-0.0217227935791015,-0.1244844198226928,27.37104833984375
1765999948624169500,28.59616943359375,0.0363581180572509,-0.1224308013916015,-0.6150394082069397,27.38982763671875
1765999948642949000,28.61494921875,0.0427162647247314,0.0796422958374023,-0.2575495839118957,27.408607421874997
1765999948661728500,28.633728515625,0.329115629196167,0.066472053527832,-0.0797377824783325,27.427386718749997
1765999948680508200,28.652508056640624,0.5793123245239258,-0.1815443038940429,0.0312157273292541,27.446166259765622
