time,seconds_elapsed,z,y,x,t
1765999927300088800,7.2720888671875,0.5024242401123047,1.7123966217041016,2.166536331176758,6.0657470703125
1765999927318868200,7.2908681640625,6.115882873535156,5.111604690551758,4.634395599365234,6.0845263671875
1765999927337647600,7.309647705078125,9.30593490600586,7.900823593139648,3.649001121520996,6.103305908203125
1765999927356427000,7.328427001953125,9.218093872070312,10.72014331817627,-2.8966050148010254,6.122085205078125
1765999927375206400,7.347206298828125,5.854662895202637,7.883003234863281,-7.780841827392578,6.140864501953125
1765999927393985800,7.36598583984375,2.1176555156707764,0.2077751159667968,-5.419291496276856,6.1596440429687505
1765999927412765200,7.38476513671875,0.6222705841064453,-3.6440272331237793,-1.7192847728729248,6.17842333984375
1765999927431544600,7.403544677734375,0.204737901687622,-4.330658912658691,1.929446816444397,6.1972028808593755
1765999927450324000,7.422323974609375,0.8714168071746826,-1.4384994506835938,2.669870615005493,6.215982177734375
1765999927469103600,7.441103515625,1.5413904190063477,2.753127098083496,1.1191883087158203,6.23476171875
1765999927487883000,7.459883056640625,2.177276134490967,3.351016998291016,-0.1244848668575286,6.253541259765625
1765999927506662400,7.478662353515625,2.8630504608154297,1.3218860626220703,-1.3858062028884888,6.272320556640625
1765999927525441800,7.49744189453125,2.894439220428467,0.6602153778076172,-2.131233692169189,6.29110009765625
1765999927544221200,7.51622119140625,2.32523775100708,0.874751091003418,-1.2878233194351196,6.30987939453125
1765999927563000600,7.53500048828125,1.4703338146209717,1.013387680053711,0.2315441966056823,6.32865869140625
1765999927581780000,7.553780029296875,1.116992473602295,0.498361587524414,1.538780927658081,6.347438232421875
1765999927600559400,7.572559326171875,0.799004316329956,0.0631361007690429,2.581602096557617,6.3662175292968755
1765999927619338800,7.5913388671875,0.5633807182312012,-0.0707626342773437,3.062529325485229,6.3849970703125
1765999927638118100,7.6101181640625,0.8775334358215332,0.3881444931030273,3.2431087493896484,6.4037763671875005
1765999927656897500,7.6288974609375,0.8137149810791016,1.2687492370605469,3.290204763412476,6.4225556640625
1765999927675677200,7.64767724609375,0.9529354572296144,1.580012321472168,2.6917948722839355,6.44133544921875
1765999927694456600,7.66645654296875,0.8094918727874756,1.544412612915039,1.7270509004592896,6.46011474609375
1765999927713236000,7.685236083984375,1.1348397731781006,1.8837461471557615,0.4619429111480713,6.478894287109375
1765999927732015400,7.704015380859375,1.1210665702819824,2.795689582824707,-0.8375436067581177,6.497673583984375
1765999927750794800,7.722794677734375,1.0394494533538818,2.9020376205444336,-1.8115438222885127,6.516452880859375
1765999927769574100,7.74157421875,0.9037089347839355,1.5060710906982422,-1.4504635334014893,6.535232421875
1765999927788353500,7.760353515625,-0.9412918090820312,1.972665786743164,-1.737332105636597,6.55401171875
1765999927807133000,7.7791328125,-1.918755888938904,4.275612831115723,-3.1578502655029297,6.5727910156250005
1765999927825912300,7.797912353515625,-1.391524314880371,4.102807998657227,-3.263366222381592,6.591570556640625
1765999927844691700,7.816691650390625,-0.2804582715034485,0.950758934020996,-2.300013542175293,6.6103498535156255
1765999927863471000,7.83547119140625,-0.0571164190769195,-0.5997953414916992,-1.9633780717849727,6.62912939453125
1765999927882250800,7.854250732421875,-6.29583215713501,-4.180080413818359,-1.5121909379959106,6.647908935546875
1765999927901030100,7.873030029296875,-7.068931579589844,-0.1929960250854492,-2.732932806015014,6.666688232421875
1765999927919809500,7.8918095703125,-8.679278373718262,8.992576599121094,-0.9209208488464355,6.6854677734375
1765999927947978800,7.919978759765625,2.5901012420654297,-3.319878101348877,5.618691444396973,6.713636962890625
1765999927966758100,7.938758056640625,1.9926693439483645,-1.5222411155700684,-7.329328536987305,6.732416259765625
1765999927985537500,7.95753759765625,-1.9848439693450928,-1.7738399505615234,-8.122723579406738,6.75119580078125
1765999928013706500,7.98570654296875,-5.086629867553711,-1.5965585708618164,4.198727130889893,6.7793647460937505
1765999928032486000,8.00448583984375,-4.512692451477051,-1.35783052444458,4.702164649963379,6.798144042968751
1765999928051265300,8.023265380859375,-4.34157133102417,-2.4197096824646,0.179004430770874,6.816923583984375
1765999928070045000,8.042044921875,-4.1481781005859375,-3.022437572479248,-2.8513612747192383,6.835703125
1765999928088824300,8.06082421875,-3.853849887847901,-3.2513084411621094,-4.345861434936523,6.854482421875
1765999928107603700,8.079603759765625,-3.576269626617432,-3.465278148651123,-3.915382862091065,6.873261962890625
1765999928126383000,8.098383056640625,-3.7327942848205566,-3.5077686309814453,-2.5331685543060303,6.892041259765625
1765999928145162500,8.11716259765625,-3.854146242141724,-3.4343175888061523,-1.708244800567627,6.91082080078125
1765999928163942000,8.13594189453125,-3.8724112510681152,-3.234687328338623,-1.030137538909912,6.92960009765625
1765999928182721300,8.15472119140625,-3.619276523590088,-2.9422616958618164,-0.6115094423294067,6.9483793945312495
1765999928201500700,8.173500732421875,-3.424649238586426,-2.513655662536621,-0.4449819326400757,6.967158935546875
1765999928220280000,8.192280029296874,-3.193432092666626,-2.143852710723877,-0.5251591205596924,6.985938232421875
1765999928239059500,8.2110595703125,-3.0631399154663086,-1.6135048866271973,-0.9253900051116944,7.0047177734375
1765999928257839000,8.229839111328126,-2.625518798828125,-1.3232011795043943,-1.2072951793670654,7.023497314453126
1765999928276618200,8.2486181640625,-2.383009195327759,-0.973170280456543,-1.1454057693481443,7.042276367187499
1765999928295398000,8.26739794921875,-2.193920612335205,-0.7146787643432617,-0.953508734703064,7.061056152343751
1765999928314177300,8.28617724609375,-2.0509541034698486,-0.6025066375732422,-0.6443888545036316,7.07983544921875
1765999928332956700,8.304956787109376,-2.194345474243164,-0.59014892578125,-0.1828452348709106,7.098614990234376
1765999928351736000,8.323736083984375,-1.9972400665283203,-0.1249418258666992,0.1594463586807251,7.117394287109375
1765999928370515500,8.342515380859375,-1.7309346199035645,1.2508001327514648,0.2278633117675781,7.136173583984375
1765999928389294800,8.361294921875,-1.0465621948242188,1.8561887741088867,0.1974384188652038,7.1549531250000005
1765999928417464000,8.389464111328126,-0.2304143905639648,0.5476474761962891,-0.098929226398468,7.183122314453126
1765999928436243500,8.408243408203125,-0.1982717514038086,-0.0147857666015625,0.1639372706413269,7.201901611328125
1765999928455022800,8.42702294921875,-0.1108884811401367,-0.3052101135253906,1.019716501235962,7.220681152343751
1765999928473802200,8.44580224609375,-0.8683810234069824,-0.2808094024658203,1.7746775150299072,7.23946044921875
1765999928492581600,8.46458154296875,1.1806902885437012,1.3662700653076172,3.0134897232055664,7.25823974609375
1765999928511361000,8.483361083984375,2.2232770919799805,6.550101280212402,7.598064422607422,7.2770192871093755
1765999928530140700,8.502140625,3.123990058898926,8.898133277893066,5.348379135131836,7.295798828124999
1765999928548920000,8.520920166015625,7.956550598144531,11.677386283874512,-3.2732205390930176,7.314578369140625
1765999928567699500,8.539699462890624,9.005647659301758,9.929849624633787,-7.733346939086914,7.333357666015624
1765999928586478800,8.558478759765626,5.247374534606934,3.7406530380249023,-8.459364891052246,7.352136962890626
1765999928605258200,8.57725830078125,1.4880642890930176,0.81475830078125,-6.374962329864502,7.370916503906249
1765999928624037600,8.59603759765625,-1.011143684387207,0.398996353149414,-2.632739543914795,7.389695800781251
1765999928642817000,8.614817138671874,-1.059626817703247,-0.4833173751831054,1.9427106380462649,7.4084753417968745
1765999928661596400,8.633596435546876,-0.7931251525878906,-1.7650022506713867,3.377490282058716,7.427254638671876
1765999928680375800,8.652375732421875,-0.4330925941467285,-2.2130322456359863,1.5512146949768066,7.446033935546875
1765999928699155500,8.671155517578125,-0.3743505477905273,-1.373612880706787,-0.0543834902346134,7.464813720703125
1765999928717934800,8.689934814453125,0.1367647647857666,-0.3646278381347656,-0.5064525604248047,7.483593017578125
1765999928736714200,8.70871435546875,0.8700506687164307,0.1966276168823242,-0.4685596823692322,7.50237255859375
1765999928755493600,8.72749365234375,1.6066277027130127,0.928786277770996,-1.4449067115783691,7.52115185546875
1765999928774273000,8.74627294921875,1.723327398300171,2.183640480041504,-2.964316129684448,7.539931152343749
1765999928793052400,8.765052490234375,1.2159700393676758,3.468587875366211,-4.041360378265381,7.558710693359375
1765999928811831800,8.783831787109374,0.606792688369751,4.116619110107422,-4.471248149871826,7.577489990234374
1765999928830611200,8.802611083984376,1.1205213069915771,3.127547264099121,-3.5854380130767822,7.596269287109376
1765999928849390600,8.821390625,1.0572240352630615,3.379554748535156,-3.5167832374572754,7.6150488281249995
1765999928868170000,8.840169921875,0.7703514099121094,3.3669662475585938,-3.2608139514923096,7.633828125000001
1765999928886949600,8.85894970703125,0.3282427787780761,2.691133499145508,-2.366496086120605,7.6526079101562505
1765999928905729000,8.87772900390625,0.3380398750305176,1.0225353240966797,-0.7540442943572998,7.67138720703125
1765999928924508400,8.89650830078125,0.3525092601776123,-0.7266473770141602,1.420735001564026,7.69016650390625
1765999928943287800,8.915287841796875,0.8507194519042969,-1.923649787902832,3.6485445499420166,7.708946044921875
1765999928962067200,8.934067138671875,1.292729139328003,-2.170948982238769,5.667795658111572,7.727725341796875
1765999928980846600,8.9528466796875,1.3289477825164795,-2.0846376419067383,6.662378311157227,7.7465048828125
1765999928999626000,8.9716259765625,1.1592717170715332,-2.059090137481689,6.047153949737549,7.7652841796875
1765999929018405400,8.9904052734375,2.632754325866699,-1.465571403503418,4.3965983390808105,7.784063476562499
1765999929046574600,9.01857470703125,3.014999866485596,-0.8680667877197266,1.882673978805542,7.812232910156251
1765999929074743800,9.046743896484376,1.5162603855133057,-1.058074951171875,-0.5216955542564392,7.840402099609376
1765999929093523200,9.065523193359375,-0.0601263046264648,-0.7363548278808594,-1.2360323667526243,7.8591813964843755
1765999929112302600,9.084302490234377,-1.8339698314666748,0.2952814102172851,-0.9157191514968872,7.877960693359377
1765999929131082000,9.10308203125,-3.856254100799561,1.979450225830078,0.8532885909080505,7.896740234375001
1765999929149861400,9.121861328125,-4.149415493011475,3.182701110839844,2.96476411819458,7.91551953125
1765999929168640800,9.140640869140626,-1.879964590072632,2.942411422729492,4.502630710601807,7.934299072265626
1765999929187420400,9.15942041015625,-4.4038825035095215,-1.2969560623168943,3.2905797958374023,7.953078613281249
1765999929206199600,9.178199462890625,-3.7685935497283936,-1.8795099258422847,-4.066676616668701,7.971857666015625
1765999929224979200,9.196979248046874,4.477964878082275,6.313733100891113,-8.862749099731445,7.9906374511718745
1765999929243758600,9.215758544921876,1.4677257537841797,3.868330955505371,-2.679672241210937,8.009416748046876
1765999929262538000,9.2345380859375,0.2739782333374023,-1.852762222290039,-3.134219169616699,8.0281962890625
1765999929290707000,9.26270703125,-2.697988271713257,-1.2802724838256836,-1.2450523376464844,8.056365234375
1765999929309486600,9.281486572265624,-4.090478897094727,-2.1230311393737797,1.82132089138031,8.075144775390624
1765999929328266000,9.300265869140626,-4.167844295501709,-1.8464503288269043,2.9826157093048096,8.093924072265626
