time,seconds_elapsed,z,y,x,t
1765999932363491300,12.3354912109375,0.168675035238266,1.428049087524414,2.180023670196533,11.1268017578125
1765999932382270700,12.354270751953123,0.1466839015483856,1.3322961330413818,2.32968544960022,11.145581298828123
1765999932401050000,12.373050048828125,0.1920406222343444,1.1992802619934082,2.399629592895508,11.164360595703124
1765999932419829500,12.39182958984375,0.279852420091629,1.041982650756836,2.406043767929077,11.18314013671875
1765999932438609200,12.410609130859376,0.3650680780410766,0.7415898442268372,2.3452625274658203,11.201919677734375
1765999932457388500,12.429388427734375,0.4362338185310364,0.3547597229480743,2.2343907356262207,11.220698974609375
1765999932476168000,12.44816796875,0.4933496713638305,-0.0375681854784488,2.127031087875366,11.239478515625
1765999932494947300,12.466947265625,0.5019017457962036,-0.2872591614723205,2.0152428150177,11.2582578125
1765999932513726700,12.485726806640624,0.4753291606903076,-0.3857611119747162,1.8843650817871092,11.277037353515624
1765999932532506000,12.504506103515626,0.4235583543777466,-0.4619664847850799,1.7081305980682373,11.295816650390625
1765999932551285800,12.52328564453125,0.3592648506164551,-0.5439751148223877,1.5028800964355469,11.314596191406249
1765999932570065200,12.542065185546877,0.3128391206264496,-0.633008599281311,1.2907572984695437,11.333375732421876
1765999932588844500,12.560844482421874,0.2425896823406219,-0.8104648590087891,1.1016945838928225,11.352155029296874
1765999932607624000,12.5796240234375,0.1680641770362854,-0.9642500281333924,0.8979712128639221,11.3709345703125
1765999932626403300,12.5984033203125,0.0669660493731498,-1.050534725189209,0.6624828577041626,11.3897138671875
1765999932645182700,12.6171826171875,-0.048334676772356,-1.11345374584198,0.4086685478687286,11.4084931640625
1765999932663962400,12.63596240234375,-0.1657734364271164,-1.173165798187256,0.1540906429290771,11.42727294921875
1765999932682741800,12.65474169921875,-0.2716057598590851,-1.211802959442139,-0.106595903635025,11.44605224609375
1765999932701521200,12.673521240234376,-0.3698022663593292,-1.2359321117401123,-0.3503309488296509,11.464831787109375
1765999932720300500,12.692300537109375,-0.4486038088798523,-1.2675443887710571,-0.5572614073753357,11.483611083984375
1765999932739080000,12.711079833984376,-0.5005273222923279,-1.3099994659423828,-0.7250964641571045,11.502390380859376
1765999932757859600,12.729859619140624,-0.5138136148452759,-1.3315324783325195,-0.8407026529312134,11.521170166015624
1765999932776639000,12.748638916015626,-0.512133777141571,-1.2017236948013306,-0.934012234210968,11.539949462890625
1765999932795418400,12.76741845703125,-0.524503767490387,-0.9911280870437622,-1.003650784492493,11.55872900390625
1765999932814197800,12.78619775390625,-0.5067886710166931,-0.74540776014328,-1.0164790153503418,11.57750830078125
1765999932832977200,12.80497705078125,-0.4215730428695678,-0.4364628791809082,-0.950352907180786,11.59628759765625
1765999932851756500,12.823756591796876,-0.2146426141262054,-0.190131664276123,-0.718224287033081,11.615067138671876
1765999932870536200,12.8425361328125,0.1540142893791198,0.2475529462099075,-0.4561632871627807,11.6338466796875
1765999932898705400,12.870705322265623,0.0781143307685852,1.1220059394836426,-0.5934551358222961,11.662015869140623
1765999932917484800,12.88948486328125,-0.3239873945713043,0.6246092319488525,-0.4470002949237823,11.68079541015625
1765999932936264200,12.90826416015625,-0.1614973694086074,0.2721402645111084,-0.3494146466255188,11.69957470703125
1765999932955043600,12.927043701171876,0.0304668806493282,0.6247619390487671,-0.3051269650459289,11.718354248046875
1765999932973823000,12.945822998046877,-0.0191658828407526,0.6594285368919373,-0.4384481906890869,11.737133544921877
1765999932992602400,12.964602294921876,-0.2893208265304565,0.0791069865226745,-0.5374082922935486,11.755912841796876
1765999933011382000,12.983382080078124,-0.4347066581249237,-0.1233946830034256,-0.6334667801856995,11.774692626953124
1765999933030161400,13.002161376953126,-0.3875173330307007,0.1053741723299026,-0.8122974634170532,11.793471923828125
1765999933048940800,13.02094091796875,-0.2963457703590393,0.2034179717302322,-0.7594576478004456,11.812251464843749
1765999933067720200,13.03972021484375,-0.2555705606937408,0.2400698512792587,-0.6763800382614136,11.83103076171875
1765999933086499600,13.05849951171875,-0.1882227063179016,0.2301433086395263,-0.6391173005104065,11.84981005859375
1765999933105279000,13.077279052734376,-0.0735328495502471,-0.070096731185913,-0.5794052481651306,11.868589599609376
1765999933124058600,13.09605859375,-0.0591775253415107,-0.6134609580039978,-0.5395463109016418,11.887369140625
1765999933142838000,13.114838134765623,-0.1052978187799453,-0.9158390164375304,-0.4337140023708343,11.906148681640623
1765999933161617400,13.133617431640625,-0.0550541877746582,-0.906828761100769,-0.2927569448947906,11.924927978515624
1765999933180396800,13.152396728515624,-0.0133626665920019,-0.7255546450614929,-0.1415679156780243,11.943707275390624
1765999933199176400,13.171176513671876,0.0103083429858088,-0.5187768936157227,0.0013744457392022,11.962487060546875
1765999933217955800,13.189955810546875,0.0264962594956159,-0.388051837682724,0.1069013327360153,11.981266357421875
1765999933236735200,13.2087353515625,0.0239000841975212,-0.4431824088096618,0.1908952444791793,12.0000458984375
1765999933255514600,13.2275146484375,0.0096974782645702,-0.5453495383262634,0.2411388754844665,12.0188251953125
1765999933274294000,13.2462939453125,0.0173332877457141,-0.5080868005752563,0.2964221239089966,12.0376044921875
1765999933293073400,13.265073486328124,0.0697149410843849,-0.3724747896194458,0.4008800089359283,12.056384033203123
1765999933311853000,13.28385302734375,0.1349247545003891,-0.2151771187782287,0.512668251991272,12.075163574218749
1765999933330632400,13.302632568359376,0.2442695498466491,-0.0997236743569374,0.6389645338058472,12.093943115234376
1765999933358801700,13.3308017578125,0.4444804787635803,-0.0529925189912319,0.9301943182945251,12.1221123046875
1765999933377581000,13.3495810546875,0.5823832154273987,-0.2374736815690994,1.107956051826477,12.1408916015625
1765999933396360400,13.3683603515625,0.6141481995582581,-0.3591884970664978,1.2063052654266355,12.159670898437499
1765999933415139800,13.387139892578125,0.561766505241394,-0.1009454056620597,1.2472331523895264,12.178450439453124
1765999933433919200,13.405919189453124,0.4757873117923736,0.287106454372406,1.091309905052185,12.197229736328124
1765999933452699000,13.424698974609376,0.4657080471515655,0.3817904889583587,0.819322407245636,12.216009521484375
1765999933471478300,13.443478271484375,0.4408152997493744,0.19700388610363,0.2083048969507217,12.234788818359375
1765999933490257700,13.462257568359377,0.5432878732681274,-0.523052990436554,-0.7273872494697571,12.253568115234376
1765999933509037000,13.481037109375,0.8401681184768677,-1.6461278200149536,-1.6568180322647097,12.27234765625
1765999933527816400,13.49981640625,0.9835686683654784,-2.4428482055664062,-2.298226118087769,12.291126953125
1765999933546596000,13.51859619140625,1.0732131004333496,-2.388786792755127,-2.6841397285461426,12.30990673828125
1765999933565375500,13.53737548828125,1.293582558631897,-1.8147265911102293,-3.0576837062835693,12.328686035156249
1765999933584155000,13.55615478515625,1.1326196193695068,-0.9928079843521118,-2.840521335601806,12.34746533203125
1765999933602934300,13.574934326171874,0.1859319657087326,-0.694247841835022,-1.8955134153366089,12.366244873046874
1765999933621713700,13.593713623046876,-0.7431933879852295,0.6606502532958984,-1.1282672882080078,12.385024169921875
1765999933640493300,13.612493408203123,-0.1947895139455795,2.3063199520111084,-1.6050472259521484,12.403803955078123
1765999933659272700,13.631272705078125,0.0257326792925596,1.4492766857147217,-1.0679444074630735,12.422583251953125
1765999933678052000,13.650052001953124,-0.4165334105491638,1.373682141304016,-0.7064651250839233,12.441362548828124
1765999933696831500,13.66883154296875,-0.432110458612442,1.7582215070724487,-0.7005091905593872,12.46014208984375
1765999933715611100,13.687611083984375,-0.1647044122219085,1.17805278301239,-0.7426588535308838,12.478921630859375
1765999933734390500,13.706390625,-0.0692567974328994,0.7066178321838379,-0.5361865758895874,12.497701171874999
1765999933753170000,13.725169921875,-0.0970511436462402,0.5502364635467529,-0.3097084462642669,12.51648046875
1765999933771949300,13.74394921875,-0.0880408883094787,0.7374665141105652,-0.2157879769802093,12.535259765625
1765999933790728700,13.762728759765626,-0.1286633908748626,1.1940879821777344,-0.1139262840151786,12.554039306640625
1765999933809508000,13.781508056640623,-0.1674533039331436,1.5833615064620972,-0.0276416316628456,12.572818603515623
1765999933828287700,13.800287841796877,-0.1979965418577194,1.7427972555160522,0.0568104237318038,12.591598388671876
1765999933847067100,13.819067138671874,-0.1819613426923751,1.7004948854446411,0.1467602699995041,12.610377685546874
1765999933865846500,13.837846435546876,-0.0646753087639808,1.5184571743011477,0.2554942071437835,12.629156982421875
1765999933884626000,13.8566259765625,0.0930805206298828,1.3490948677062988,0.3720166385173797,12.6479365234375
1765999933903405600,13.875405517578123,0.2210566848516464,1.2822052240371704,0.4375318884849548,12.666716064453123
1765999933922185000,13.89418505859375,0.1075885593891143,1.9031492471694944,-0.173943743109703,12.68549560546875
1765999933940964400,13.91296435546875,-1.0248019695281982,1.833205223083496,-1.071762204170227,12.70427490234375
1765999933959743700,13.93174365234375,-1.4383574724197388,0.7113520503044128,-0.7359393239021301,12.72305419921875
1765999933978523100,13.950523193359375,-0.3363574147224426,1.0619884729385376,0.002901607658714,12.741833740234375
1765999933997302800,13.969302734375,0.2259436100721359,0.1788306683301925,-0.0642935186624527,12.76061328125
1765999934016082200,13.988082275390624,-0.2412152290344238,-0.1908952444791793,-0.2467893660068512,12.779392822265624
1765999934034861600,14.006861572265626,-0.2906952798366546,0.2756527364253998,-0.1815795600414276,12.798172119140625
1765999934053641000,14.025640869140624,-0.1193477064371109,-0.083535760641098,-0.1406516134738922,12.816951416015623
1765999934072420400,14.04442041015625,-0.0875827372074127,-0.4291325211524963,-0.1566868126392364,12.83573095703125
1765999934091200000,14.063199951171876,-0.1607337892055511,-0.5766563415527344,-0.1829539984464645,12.854510498046876
1765999934109979400,14.0819794921875,-0.1308014243841171,-0.7429642677307129,-0.2055560052394867,12.8732900390625
1765999934128758800,14.1007587890625,-0.0565813519060611,-0.7863357067108154,-0.2015853822231292,12.8920693359375
1765999934147538200,14.1195380859375,-0.044058620929718,-0.7327322959899902,-0.1718057245016098,12.910848632812499
1765999934175707400,14.147707275390625,0.0768926069140434,-0.1316413581371307,-0.171194851398468,12.939017822265624
1765999934194486800,14.16648681640625,0.3720930218696594,-0.4714348912239074,-0.0018325943965464,12.95779736328125
1765999934213266400,14.185266357421876,-0.2309832423925399,-0.4170679152011871,0.0193949565291404,12.976576904296875
1765999934232045800,14.2040458984375,-0.4070650041103363,0.2035706937313079,-0.1432477980852127,12.995356445312499
1765999934250825200,14.2228251953125,-0.28504478931427,0.7446441650390625,-0.0277943480759859,13.0141357421875
1765999934269604600,14.2416044921875,0.0526107288897037,0.527481734752655,0.0534506663680076,13.0329150390625
1765999934288384300,14.26038427734375,0.2543488144874573,0.106595903635025,0.1117882579565048,13.05169482421875
1765999934307163600,14.27916357421875,-0.0029779658652842,0.0387899130582809,0.1102610900998115,13.07047412109375
1765999934325943000,14.297943115234377,-0.1628718227148056,-0.2611446976661682,0.0788015574216842,13.089253662109376
1765999934344722400,14.316722412109376,-0.083764836192131,-0.2121227979660034,0.0810922980308532,13.108032958984376
1765999934363502000,14.335502197265624,-0.0145843969658017,-0.1264490038156509,0.0511599257588386,13.126812744140624
