time,seconds_elapsed,z,y,x,t
1765999941469182500,21.441182373046875,-4.388771057128906,-1.5105814933776855,-0.4447817206382751,20.234840576171873
1765999941487962000,21.45996215820313,-3.667902708053589,-1.0879898071289062,-0.6105326414108276,20.253620361328128
1765999941506741500,21.47874145507813,-3.2301177978515625,-0.5531120300292969,-1.1233539581298828,20.272399658203128
1765999941525521000,21.49752099609375,-2.6123263835906982,0.3887691497802734,-1.6853983402252195,20.29117919921875
1765999941544300500,21.516300537109377,-2.140460729598999,0.982431411743164,-1.273613691329956,20.309958740234375
1765999941563080000,21.535079833984376,-0.8589286804199219,1.384596824645996,-1.760489583015442,20.328738037109375
1765999941581859600,21.553859619140624,-0.1596395969390869,1.0046930313110352,-2.038486957550049,20.347517822265623
1765999941600639000,21.572638916015624,0.578454315662384,0.3941001892089844,-2.258859395980835,20.366297119140622
1765999941619418400,21.59141845703125,1.1009114980697632,-0.2851037979125976,-1.0054783821105957,20.385076660156248
1765999941638198000,21.610197998046875,1.101607084274292,0.1700525283813476,-0.4598922431468963,20.403856201171873
1765999941656977400,21.628977294921874,0.6609899401664734,0.953125,-0.2721256911754608,20.422635498046873
1765999941675756800,21.6477568359375,0.6018956303596497,1.3974714279174805,0.4151190221309662,20.4414150390625
1765999941694536400,21.666536376953125,0.9916533827781676,1.968226432800293,0.8117569088935852,20.460194580078124
1765999941713315800,21.68531591796875,0.9501543045043944,2.0759572982788086,0.4537294805049896,20.47897412109375
1765999941732095200,21.70409521484375,1.110360860824585,1.1580305099487305,0.0995688736438751,20.49775341796875
1765999941750875000,21.722875,1.584557294845581,0.4869012832641601,0.257824957370758,20.516533203124997
1765999941769654300,21.741654296875,1.8632577657699585,-0.0121784210205078,0.5376585721969604,20.5353125
1765999941788433700,21.76043359375,1.7625696659088137,0.1131124496459961,0.1569763869047165,20.554091796875
1765999941816603000,21.788602783203125,0.9424995183944702,1.4319772720336914,0.3715739548206329,20.582260986328123
1765999941835382500,21.807382568359376,0.8790801167488098,0.7438726425170898,0.0864758789539337,20.601040771484374
1765999941854162000,21.826161865234376,0.770573079586029,-0.507878303527832,-0.589647650718689,20.619820068359374
1765999941872941300,21.84494140625,0.2552657127380371,-0.0896272659301757,-1.036365032196045,20.638599609375
1765999941891721000,21.863720947265627,0.5194212794303894,0.5417509078979492,-1.2332810163497925,20.657379150390625
1765999941910500400,21.882500244140623,0.9611828327178956,0.4896821975708008,-0.7746923565864563,20.67615844726562
1765999941929280000,21.901280029296878,1.326116681098938,0.4520225524902344,-0.672360897064209,20.694938232421876
1765999941948059400,21.920059326171877,1.4518977403640747,0.0265893936157226,-0.5550002455711365,20.713717529296876
1765999941966838800,21.9388388671875,1.3247287273406982,-0.3222208023071289,-0.306378424167633,20.732497070312498
1765999941985618400,21.957618408203125,0.8730422854423523,-0.5187997817993164,0.189382866024971,20.751276611328123
1765999942004397800,21.976397705078124,0.4944939017295837,-0.2900714874267578,0.4686874747276306,20.770055908203123
1765999942023177200,21.99517724609375,0.3535885810852051,-0.2497644424438476,0.5551391839981079,20.788835449218748
1765999942041956900,22.01395678710937,0.1093848049640655,-0.2669486999511719,0.532881498336792,20.80761499023437
1765999942060736300,22.032736328125,-0.1319454759359359,-0.0493240356445312,0.6779054403305054,20.82639453125
1765999942079515600,22.051515625,-0.3863188624382019,0.078338623046875,0.3889096975326538,20.845173828125
1765999942098295300,22.07029541015625,-0.3691674470901489,0.0253868103027343,0.0086338818073272,20.863953613281247
1765999942117074700,22.08907470703125,-0.2026875466108322,-0.1277942657470703,-0.078862726688385,20.88273291015625
1765999942135854000,22.10785400390625,-0.2697838842868805,-0.1286287307739257,-0.2441495656967163,20.90151220703125
1765999942154633700,22.1266337890625,-0.2682962417602539,-0.1845359802246093,-0.7208471298217773,20.920291992187497
1765999942173413000,22.1454130859375,-0.1390387564897537,-0.0541238784790039,-1.3089481592178345,20.939071289062497
1765999942192192500,22.164192626953124,0.1902374029159546,-0.049269676208496,-1.03147554397583,20.957850830078122
1765999942210972200,22.18297216796875,0.7960505485534668,0.0117387771606445,-0.1874837875366211,20.976630371093748
1765999942229751600,22.20175146484375,0.9538804292678832,0.1461925506591797,0.290017157793045,20.995409667968747
1765999942248531200,22.22053125,1.0762405395507812,0.1337289810180664,0.3934397399425506,21.014189453125
1765999942267310600,22.239310546875,1.1336417198181152,-0.0398225784301757,0.0495296791195869,21.03296875
1765999942286090000,22.258090087890626,1.1116373538970947,0.3665475845336914,-0.337615430355072,21.051748291015624
1765999942304869600,22.27686962890625,1.2355884313583374,0.3091382980346679,-0.3278363347053528,21.07052783203125
1765999942323649000,22.29564892578125,1.499333381652832,0.3271799087524414,-0.8243984580039978,21.08930712890625
1765999942342428400,22.31442846679688,1.213106393814087,0.7824296951293945,-1.3511544466018677,21.108086669921878
1765999942370597600,22.34259765625,0.9788331985473632,1.3342084884643557,-2.141404390335083,21.136255859374998
1765999942389377300,22.361377197265625,1.307964563369751,1.2004671096801758,-1.9641573429107664,21.155035400390624
1765999942408156700,22.38015673828125,1.5702589750289917,0.8987369537353516,-1.434303879737854,21.17381494140625
1765999942426936000,22.39893603515625,1.71825909614563,0.9868574142456056,-0.716661274433136,21.19259423828125
1765999942445715700,22.4177158203125,1.821688771247864,0.8033714294433594,0.4481206834316253,21.2113740234375
1765999942464495000,22.4364951171875,1.5797805786132812,-0.0413150787353515,1.441870093345642,21.2301533203125
1765999942483274500,22.4552744140625,1.316763401031494,-0.8838138580322266,1.5519802570343018,21.2489326171875
1765999942511443700,22.483443603515624,-0.0962933301925659,-1.4017410278320312,2.4112727642059326,21.277101806640623
1765999942530223400,22.50222338867188,-1.266478419303894,-0.8470535278320312,1.9247841835021973,21.295881591796878
1765999942549002800,22.521002685546875,-0.4149681329727173,-0.4221944808959961,2.52103853225708,21.314660888671874
1765999942567782400,22.539782470703123,0.9215928316116332,0.3256711959838867,2.190675973892212,21.33344067382812
1765999942586561800,22.558561767578126,1.3171284198760986,0.2773027420043945,0.5851786136627197,21.352219970703125
1765999942614731000,22.58673095703125,0.6121690273284912,0.551793098449707,-0.8095901608467102,21.38038916015625
1765999942633510400,22.60551049804688,0.0666449218988418,0.6361112594604492,-0.9631327390670776,21.399168701171877
1765999942652290000,22.6242900390625,-1.752655029296875,1.1327695846557615,0.3476694524288177,21.4179482421875
1765999942671069400,22.6430693359375,-3.3287954330444336,1.742753982543945,2.961277484893799,21.4367275390625
1765999942689848800,22.66184887695313,-3.2870938777923584,2.169252395629883,4.278189659118652,21.455507080078128
1765999942708628500,22.68062841796875,-5.814224243164063,-3.407382011413574,0.6383922100067139,21.47428662109375
1765999942727407900,22.699407958984374,-2.636679649353028,2.4529294967651367,-3.2618296146392822,21.493066162109372
1765999942746187300,22.718187255859377,-0.5920028686523438,5.06068229675293,3.8669514656066895,21.511845458984375
1765999942774356500,22.7463564453125,2.919474601745605,-0.8902149200439453,3.667692422866821,21.5400146484375
1765999942793136000,22.76513623046875,-0.0976486206054687,-1.2789793014526367,-0.3398061692714691,21.55879443359375
1765999942811915500,22.78391552734375,-3.070354461669922,1.0506258010864258,-2.981630563735962,21.57757373046875
1765999942830695200,22.802695068359377,-4.942023277282715,1.2370853424072266,-3.194076538085937,21.596353271484375
1765999942849474600,22.821474609375,-4.813486099243164,-0.1485328674316406,-2.689962863922119,21.615132812499997
1765999942868254000,22.84025390625,-4.333354949951172,-0.3921470642089844,-1.0736453533172607,21.633912109374997
1765999942887033600,22.85903369140625,-3.8645172119140634,-1.0671563148498535,-0.6426555514335632,21.652691894531248
1765999942905813000,22.87781298828125,-3.2817459106445312,-1.1576042175292969,-1.2916899919509888,21.671471191406248
1765999942933982200,22.905982177734376,-2.5869176387786865,-1.0390501022338867,-1.048245191574097,21.699640380859375
1765999942952761600,22.92476171875,-1.8162147998809812,-0.8926973342895508,-1.3130658864974976,21.718419921874997
1765999942971541200,22.943541259765624,-1.1677967309951782,-0.3760805130004883,-1.5473302602767944,21.737199462890622
1765999942990320600,22.962320556640623,-0.7430930137634277,-0.3610754013061523,-1.2480472326278689,21.755978759765622
1765999943018489900,22.99048974609375,-0.03391695022583,-0.752899169921875,-0.0787920951843261,21.78414794921875
1765999943037269200,23.009269287109376,0.0806552171707153,-0.7203388214111328,0.3262953758239746,21.802927490234374
1765999943056049000,23.028048828125,0.5869021415710449,-0.1088008880615234,0.2137690782546997,21.82170703125
1765999943074828300,23.046828369140623,0.7348520755767822,0.1913490295410156,-0.237242043018341,21.840486572265622
1765999943102997500,23.07499755859375,0.6614713668823242,0.2908735275268554,-0.311191976070404,21.86865576171875
1765999943121777200,23.093777099609376,0.5297393798828125,-0.1496381759643554,0.2551568150520324,21.887435302734374
1765999943140556500,23.112556640625,0.7960217595100403,-0.7984371185302734,0.910991072654724,21.90621484375
1765999943159336000,23.1313359375,1.2693774700164795,-0.2224159240722656,0.6485453248023987,21.924994140625
1765999943187505200,23.159505126953125,0.2905700206756592,-0.1729536056518554,1.0275917053222656,21.953163330078123
1765999943206284800,23.178284912109376,0.0995985269546508,-0.3539209365844726,1.8882219791412356,21.971943115234374
1765999943225064200,23.197064208984376,0.1901317834854126,-0.4596014022827148,2.3557071685791016,21.990722412109374
1765999943243843600,23.21584350585937,-0.1732387542724609,0.167999267578125,2.261564254760742,22.00950170898437
1765999943262623200,23.234623291015627,-0.1001332998275756,1.5137434005737305,1.9811179637908936,22.028281494140625
1765999943281402600,23.253402587890623,0.924511194229126,-0.2133712768554687,0.3898107409477234,22.04706079101562
1765999943300182300,23.272182373046878,1.0480053424835205,-0.9203052520751952,-2.104081392288208,22.065840576171876
1765999943318961700,23.290961669921877,0.1647621989250183,0.2664976119995117,-2.527548313140869,22.084619873046876
1765999943337741000,23.309740966796877,-0.3416658639907837,1.084115982055664,-2.1201415061950684,22.103399169921875
1765999943356520700,23.328520751953125,-0.1212282180786132,1.136810302734375,-2.747638702392578,22.122178955078123
1765999943375300000,23.347300048828124,0.0923726558685302,1.0141935348510742,-2.9602322578430176,22.140958251953123
1765999943394079500,23.36607958984375,0.4205623865127563,1.1972990036010742,-1.9083068370819087,22.15973779296875
1765999943412859100,23.384859130859372,0.7048877477645874,1.1048564910888672,-1.0223733186721802,22.17851733398437
1765999943431638500,23.40363842773437,0.7081528306007385,0.6914100646972656,-0.7126154899597168,22.19729663085937
1765999943459807700,23.431807861328124,0.853735089302063,0.335606575012207,-0.5051090717315674,22.225466064453123
1765999943478587400,23.45058740234375,0.8595409989356995,0.2410469055175781,-0.8629062175750732,22.24424560546875
1765999943497366800,23.46936669921875,0.9765949249267578,0.0248498916625976,-1.0190324783325195,22.263024902343748
1765999943525536000,23.49753588867188,0.7836732864379883,0.0400991439819335,0.1909610629081726,22.29119409179688
1765999943544315400,23.5163154296875,0.5954431891441345,0.3360347747802734,0.8382119536399841,22.309973632812497
