time,seconds_elapsed,z,y,x,t
1765999930354092000,10.326092041015626,-1.3821579217910769,0.3944659233093261,-1.8895574808120728,9.117402587890625
1765999930372871400,10.344871337890623,-1.459737777709961,-0.813060998916626,-2.3425137996673584,9.136181884765623
1765999930391650800,10.36365087890625,-1.4142283201217651,-2.03112530708313,-2.738048553466797,9.15496142578125
1765999930410430200,10.38243017578125,-1.0373247861862185,-2.3200645446777344,-3.0491316318511963,9.17374072265625
1765999930429209600,10.401209716796876,-0.5695550441741943,-1.7579160928726196,-3.400378704071045,9.192520263671875
1765999930447989200,10.4199892578125,-0.3210858106613159,-1.005788803100586,-3.590357780456543,9.2112998046875
1765999930466768600,10.4387685546875,-0.4208094775676727,-1.2939642667770386,-2.5112650394439697,9.2300791015625
1765999930485548000,10.457548095703125,-0.7132610082626343,0.4141663312911987,-1.8365650177001955,9.248858642578124
1765999930504327400,10.476327392578124,-0.114460788667202,2.4736969470977783,-2.4231479167938232,9.267637939453124
1765999930523106800,10.49510693359375,0.6440805792808533,1.6656755208969116,-2.1890339851379395,9.28641748046875
1765999930541886200,10.51388623046875,0.3930151164531708,0.8286380767822266,-1.8202242851257324,9.305196777343749
1765999930560665600,10.53266552734375,0.42798712849617,0.1814268380403518,-1.4437788724899292,9.32397607421875
1765999930579445200,10.5514453125,0.8407790064811707,-0.4176788032054901,-1.1756092309951782,9.342755859375
1765999930598224600,10.570224609375,1.005865216255188,-0.8127555847167969,-0.744491457939148,9.36153515625
1765999930617004000,10.589004150390624,0.9090431332588196,-0.7101303339004517,-0.1154534444212913,9.380314697265623
1765999930635783400,10.607783447265623,0.8094722032546997,0.0204639695584774,0.4795288443565368,9.399093994140623
1765999930654562800,10.626562744140625,0.6894372701644897,0.9419534802436828,0.8767436742782593,9.417873291015624
1765999930673342200,10.64534228515625,0.5918515920639038,1.5118902921676636,1.158657789230347,9.43665283203125
1765999930692121600,10.66412158203125,0.5264890789985657,1.5752675533294678,1.3810125589370728,9.45543212890625
1765999930710901200,10.6829013671875,0.4913643598556518,1.2667808532714844,1.5865685939788818,9.474211914062499
1765999930729680600,10.7016806640625,0.4974730014801025,0.8019127249717712,1.7970114946365356,9.4929912109375
1765999930748460000,10.7204599609375,0.4716639816761017,0.4466948807239532,1.9666792154312132,9.5117705078125
1765999930767239400,10.739239501953126,0.4266127049922943,0.2970330119132995,2.0963351726531982,9.530550048828125
1765999930786018800,10.758018798828124,0.345062255859375,0.2515235841274261,2.162766695022583,9.549329345703123
1765999930804798200,10.776798095703125,0.2187659442424774,0.370184063911438,2.249051332473755,9.568108642578125
1765999930823577600,10.79557763671875,0.0854447111487388,0.3297142684459686,2.355799913406372,9.58688818359375
1765999930842357000,10.81435693359375,0.0494036898016929,0.1800523996353149,2.33105993270874,9.60566748046875
1765999930861136600,10.83313671875,0.0184023007750511,-0.016951497644186,2.1723878383636475,9.624447265625
1765999930879916000,10.851916015625,-0.1060613989830017,-0.2199113219976425,1.9709552526474,9.643226562499999
1765999930898695400,10.8706953125,-0.2424369603395462,-0.4735729098320007,1.7256929874420166,9.662005859375
1765999930917474800,10.889474853515624,-0.2903898358345032,-0.790000855922699,1.466075420379639,9.680785400390624
1765999930936254200,10.908254150390626,-0.2439641207456588,-1.0421353578567505,1.253036379814148,9.699564697265625
1765999930955033600,10.92703369140625,-0.1866955459117889,-1.082757830619812,1.001665472984314,9.718344238281249
1765999930973813200,10.945813232421877,-0.208381250500679,-1.0696241855621338,0.6974548697471619,9.737123779296876
1765999930992592600,10.964592529296874,-0.3047451674938202,-1.0980294942855835,0.3833176493644714,9.755903076171874
1765999931011372000,10.9833720703125,-0.4023308157920837,-1.0861176252365112,0.090866133570671,9.7746826171875
1765999931030151400,11.0021513671875,-0.4551706314086914,-1.1184934377670288,-0.1417206227779388,9.7934619140625
1765999931048930800,11.020930908203123,-0.4591412544250488,-1.222645878791809,-0.2641990184783935,9.812241455078123
1765999931067710200,11.039710205078125,-0.451047271490097,-0.9376774430274964,-0.3304778337478637,9.831020751953124
1765999931086489600,11.058489501953124,-0.2537379562854767,-0.0946840420365333,-0.6104066371917725,9.849800048828124
1765999931105269200,11.077269287109376,0.194025918841362,-0.148592859506607,-0.4873173832893371,9.868579833984375
1765999931124048600,11.096048583984375,0.6123155951499939,-0.2887863218784332,-0.6754637360572815,9.887359130859375
1765999931142828000,11.114828125,0.8065705895423889,-0.6210967898368835,-0.8071050643920898,9.906138671875
1765999931161607400,11.133607421875,0.4967094361782074,-0.9847140312194824,-0.5847502946853638,9.92491796875
1765999931180386800,11.15238671875,0.1885281354188919,-1.0337358713150024,-0.2020435184240341,9.943697265625
1765999931199166200,11.171166259765624,-0.0457384996116161,-0.4836521744728088,0.0407752245664596,9.962476806640623
1765999931217945900,11.18994580078125,-0.1141553521156311,0.2632827162742615,-0.0080939587205648,9.981256347656249
1765999931236725200,11.208725341796876,-0.001450803829357,0.4355465769767761,-0.11743875592947,10.000035888671876
1765999931255504600,11.227504638671874,0.070631243288517,0.2744309902191162,-0.1487455666065216,10.018815185546874
1765999931274284000,11.246283935546876,-0.0028252496849745,0.2406807243824005,-0.1153007298707962,10.037594482421875
1765999931293063400,11.2650634765625,-0.0895680487155914,0.2144135385751724,-0.1055268943309784,10.056374023437499
1765999931311842800,11.2838427734375,-0.1306487023830413,0.2854265570640564,-0.0928514450788497,10.0751533203125
1765999931330622200,11.302622314453124,-0.1547778695821762,0.3990474045276642,-0.0581848695874214,10.093932861328124
1765999931349401900,11.32140185546875,-0.1630245447158813,0.4608974754810333,-0.0142026059329509,10.11271240234375
1765999931368181200,11.34018115234375,-0.1715766489505767,0.3996582925319671,0.0317649692296981,10.13149169921875
1765999931386960600,11.358960693359377,-0.1726456582546234,0.2278525680303573,0.0623082071542739,10.150271240234376
1765999931405740000,11.377739990234376,-0.1747836917638778,0.0465784408152103,0.0543669648468494,10.169050537109376
1765999931424519400,11.39651953125,-0.171882078051567,-0.06276635825634,0.0105374176055192,10.187830078125
1765999931443298800,11.415298828125,-0.171882078051567,-0.0578794367611408,-0.0485637485980987,10.206609375
1765999931462078500,11.434078369140623,-0.1726456582546234,0.0207694023847579,-0.1009454056620597,10.225388916015623
1765999931480857900,11.45285791015625,-0.1756999790668487,0.0447458438575267,-0.1269071549177169,10.24416845703125
1765999931499637200,11.47163720703125,-0.1657734364271164,-0.058490302413702,-0.1366809904575348,10.26294775390625
1765999931518416600,11.490416748046876,-0.1440877318382263,-0.1870773434638977,-0.1452330946922302,10.281727294921875
1765999931537196000,11.509196044921875,-0.1240819096565246,-0.2295324355363845,-0.1269071549177169,10.300506591796875
1765999931555975700,11.5279755859375,-0.0697149410843849,-0.1310304999351501,-0.0896444097161293,10.3192861328125
1765999931574755000,11.546755126953125,-0.0683404952287674,0.0474947355687618,-0.075441800057888,10.338065673828124
1765999931593534500,11.565534423828124,-0.057192213833332,0.0699440166354179,-0.0386371985077858,10.356844970703124
1765999931612313900,11.58431396484375,0.0552069060504436,-0.093920461833477,0.0222965646535158,10.37562451171875
1765999931631093200,11.60309326171875,0.1414915472269058,-0.2015853822231292,0.1214093714952468,10.394403808593749
1765999931649872600,11.62187255859375,0.1292742639780044,-0.1928805559873581,0.2422078847885131,10.41318310546875
1765999931668652300,11.64065234375,0.1023962050676345,-0.0591011680662632,0.3862192630767822,10.431962890625
1765999931687431700,11.659431640625,0.1595120728015899,-0.0085521070286631,0.4411970973014831,10.4507421875
1765999931706211000,11.678211181640624,0.2189186662435531,-0.0667369738221168,0.444404125213623,10.469521728515623
1765999931724990500,11.696990478515623,0.2293033599853515,-0.1724165827035904,0.4017963111400604,10.488301025390623
1765999931743769900,11.715769775390624,0.2687041461467743,-0.1418733447790146,0.2029598206281662,10.507080322265624
1765999931762549200,11.73454931640625,0.2262490391731262,-0.0462730079889297,-0.0899498388171196,10.52585986328125
1765999931781329000,11.753328857421875,-0.0066431546583771,-0.0644462332129478,-0.4219548404216766,10.544639404296875
1765999931800108300,11.7721083984375,-0.2181550860404968,-0.2156352698802948,-0.8069523572921753,10.563418945312499
1765999931818887700,11.7908876953125,-0.3258199989795685,-0.4586067199707031,-1.153618097305298,10.5821982421875
1765999931837667000,11.8096669921875,-0.3368155658245086,-0.9350812435150146,-1.464242935180664,10.6009775390625
1765999931856446500,11.828446533203126,-0.3018435537815094,-1.1635446548461914,-1.7734931707382202,10.619757080078125
1765999931875225900,11.847225830078123,-0.3129918277263641,-0.8915571570396423,-2.089921236038208,10.638536376953123
1765999931894005500,11.866005615234377,-0.363388180732727,-0.1517999023199081,-2.395048141479492,10.657316162109376
1765999931912785000,11.884784912109374,-0.3580431044101715,0.5995637774467468,-2.6748242378234863,10.676095458984374
1765999931931564300,11.903564208984376,-0.2566395699977875,0.9552397727966307,-2.7753114700317383,10.694874755859376
1765999931950343700,11.92234375,-0.362930029630661,0.0455094277858734,-1.8115195035934448,10.713654296875
1765999931969123000,11.941123046875,-0.5610029697418213,0.3868301212787628,-2.075718402862549,10.732433593749999
1765999931987902500,11.95990234375,0.194942221045494,0.8958331942558289,-2.8687736988067627,10.751212890625
1765999932006682000,11.97868212890625,0.710512101650238,0.9912807941436768,-2.7757694721221924,10.76999267578125
1765999932025461500,11.99746142578125,0.5781071782112122,0.8141300082206726,-2.498284339904785,10.78877197265625
1765999932053630700,12.025630615234377,0.2900844216346741,0.6832522749900818,-2.3087635040283203,10.816941162109377
1765999932072410000,12.04441015625,0.6286562085151672,0.2231183648109436,-2.2372922897338867,10.835720703125
1765999932091189500,12.063189453125,0.8384882807731628,-0.2296851575374603,-1.9310963153839111,10.8545
1765999932119358700,12.091358642578124,0.8261182308197021,-0.3399462401866913,-1.2377647161483765,10.882669189453123
1765999932138138000,12.11013818359375,0.7230347990989685,0.0100792692974209,-0.7298306822776794,10.901448730468749
1765999932156917500,12.12891748046875,0.5642099976539612,0.9001092314720154,-0.3559814393520355,10.92022802734375
1765999932175697000,12.14769677734375,0.478841632604599,1.708741545677185,-0.0751363709568977,10.93900732421875
1765999932194476300,12.166476318359376,0.4524217247962951,2.068235397338867,0.2112064957618713,10.957786865234375
1765999932213255700,12.185255615234375,0.3878227770328522,1.8894047737121584,0.5128209590911865,10.976566162109375
1765999932232035300,12.204035400390625,0.3644571900367737,1.3791799545288086,0.8086322546005249,10.995345947265625
1765999932250814700,12.222814697265624,0.3253618478775024,0.9738711714744568,1.1242966651916504,11.014125244140624
1765999932269594000,12.241593994140626,0.2442695498466491,0.790917158126831,1.4098758697509766,11.032904541015625
1765999932288373500,12.26037353515625,0.1799760311841964,0.8168789148330688,1.6407828330993652,11.05168408203125
1765999932307153000,12.27915283203125,0.1786015927791595,0.9610430002212524,1.7519601583480835,11.07046337890625
1765999932325932300,12.297932373046876,0.2557232677936554,1.2145519256591797,1.8255693912506104,11.089242919921876
1765999932344712000,12.3167119140625,0.2329685539007187,1.3706278800964355,1.997069716453552,11.1080224609375
