time,seconds_elapsed,z,y,x,t
1765999924257824800,4.22982470703125,-3.582217216491699,-4.362079620361328,-3.3296070098876958,3.0234829101562504
1765999924276604200,4.248604248046875,-4.601576805114746,-4.867867469787598,-1.184311032295227,3.042262451171875
1765999924295383600,4.267383544921875,-4.963338375091553,-4.6453399658203125,0.2938752174377441,3.0610417480468755
1765999924314163000,4.286162841796875,-4.743659019470215,-4.00211763381958,0.584381103515625,3.079821044921875
1765999924332942300,4.3049423828125,-3.905837774276733,-3.005910873413086,0.3745922446250915,3.0986005859375005
1765999924351721700,4.3237216796875,-3.3267438411712646,-1.5434808731079102,-0.507125735282898,3.1173798828125
1765999924370501000,4.342501220703125,-2.6575469970703125,-0.1495895385742187,-1.773800253868103,3.1361594238281247
1765999924389280800,4.36128076171875,-2.056465148925781,0.483428955078125,-2.210212230682373,3.1549389648437502
1765999924408060000,4.380059814453125,-1.7071497440338137,0.3998699188232422,-1.5183106660842896,3.1737180175781248
1765999924426839600,4.398839599609375,-1.703115701675415,0.2550859451293945,-0.7226136922836304,3.1924978027343753
1765999924445619000,4.417618896484375,-1.5641915798187256,0.4753589630126953,0.0626662373542785,3.211277099609375
1765999924464398300,4.4363984375,-1.4978060722351074,0.9738140106201172,0.4794341921806335,3.2300566406250004
1765999924483177700,4.455177734375,-0.940959930419922,1.4943761825561523,0.8225877285003662,3.2488359375
1765999924501957000,4.47395703125,-0.6100969314575195,1.6673030853271484,1.1346197128295898,3.2676152343750005
1765999924520736500,4.492736572265625,-0.3858368396759033,1.7826824188232422,0.857637882232666,3.286394775390625
1765999924539516000,4.511515869140625,0.1098585128784179,2.172144889831543,0.4056146442890167,3.3051740722656255
1765999924558295300,4.53029541015625,0.6556520462036133,2.3319149017333984,0.0970236361026763,3.32395361328125
1765999924577074700,4.54907470703125,0.9486398696899414,2.1365461349487305,0.3307594656944275,3.3427329101562497
1765999924595854000,4.56785400390625,1.18597149848938,1.7852020263671875,0.973799765110016,3.36151220703125
1765999924614633500,4.586633544921875,1.1125657558441162,1.312891960144043,1.4276816844940186,3.380291748046875
1765999924633412900,4.605412841796875,1.14603853225708,0.9774332046508788,1.5922112464904783,3.3990710449218753
1765999924652192300,4.624192138671875,0.958611011505127,1.18328857421875,1.927603840827942,3.417850341796875
1765999924670971600,4.6429716796875,0.7485604286193848,2.597167015075684,2.0370020866394043,3.4366298828125004
1765999924689751000,4.6617509765625,3.454506158828736,3.983098030090332,2.081019878387451,3.4554091796875
1765999924708530400,4.680530517578125,5.032045364379883,3.297433853149414,-0.6866680383682251,3.4741887207031255
1765999924727309800,4.699309814453125,5.019080638885498,4.087665557861328,-3.326479434967041,3.492968017578125
1765999924746089200,4.718089111328125,3.6427597999572754,3.8011980056762695,-1.7627300024032593,3.5117473144531255
1765999924764868600,4.73686865234375,1.7934818267822266,1.405378341674805,-1.7871174812316897,3.53052685546875
1765999924783648000,4.75564794921875,-0.188535451889038,0.1908273696899414,-2.3700382709503174,3.5493061523437497
1765999924802427600,4.774427734375,-1.991109132766724,0.8089075088500977,-0.852202296257019,3.5680859375000002
1765999924821206800,4.793206787109375,-1.2273786067962646,1.4258193969726562,-0.1598339080810547,3.5868649902343748
1765999924839986400,4.811986328125,0.5375542640686035,0.5147628784179688,0.2551248371601105,3.6056445312500003
1765999924858765800,4.830765869140625,1.644986271858215,-0.3479375839233398,-0.2113485336303711,3.624424072265625
1765999924877545200,4.849545166015625,2.101997375488281,-0.4183406829833984,-0.5255894064903259,3.6432033691406254
1765999924896324600,4.86832470703125,1.7779723405838013,0.0253067016601562,0.1627858877182006,3.66198291015625
1765999924915104000,4.88710400390625,1.353095293045044,0.4443778991699219,0.971302330493927,3.6807622070312505
1765999924933883400,4.90588330078125,1.274789810180664,0.4638023376464844,0.5858847498893738,3.69954150390625
1765999924952662800,4.924662841796875,3.2371022701263428,0.830357551574707,-1.3985235691070557,3.7183210449218755
1765999924971442200,4.943442138671875,4.620804786682129,1.455357551574707,-3.5374879837036133,3.737100341796875
1765999924990221600,4.9622216796875,5.381758689880371,0.8659219741821289,-4.045763969421387,3.7558798828124997
1765999925009001000,4.9810009765625,4.957699775695801,0.5282964706420898,-3.414228916168213,3.7746591796875
1765999925027780400,4.9997802734375,3.862908601760864,0.9131898880004884,-2.558638572692871,3.7934384765624998
1765999925046559700,5.018559814453125,3.315805673599243,1.4223861694335938,-1.685788869857788,3.8122180175781253
1765999925065339100,5.037339111328125,3.024503231048584,2.13370418548584,-0.5368901491165161,3.830997314453125
1765999925084118500,5.056118408203125,3.126372814178467,3.099334716796875,0.3510421514511108,3.8497766113281253
1765999925102898000,5.07489794921875,2.354532480239868,3.251363754272461,0.882313072681427,3.86855615234375
1765999925121677300,5.09367724609375,0.7119250297546387,2.486323356628418,0.9803208708763124,3.8873354492187504
1765999925140456700,5.112456787109375,-0.6654303073883057,1.8481788635253904,0.998743176460266,3.906114990234375
1765999925159236000,5.131236083984375,0.0352270603179931,1.6897497177124023,1.4292047023773191,3.9248942871093755
1765999925178015500,5.150015380859375,0.265364408493042,1.3096675872802734,1.856856346130371,3.943673583984375
1765999925196795000,5.168794921875,0.1526434421539306,0.0962762832641601,2.404191255569458,3.9624531249999997
1765999925224964000,5.196964111328125,1.294736385345459,-0.7297611236572266,3.0363948345184326,3.990622314453125
1765999925243743500,5.215743408203125,0.6574476957321167,-0.4405784606933594,1.4826667308807373,4.0094016113281254
1765999925262523000,5.23452294921875,0.4110419750213623,0.2686004638671875,0.4166366457939148,4.02818115234375
1765999925281302300,5.25330224609375,-1.6041017770767212,1.4208478927612305,0.9670562744140624,4.0469604492187505
1765999925300081700,5.27208154296875,-5.895244598388672,-0.1307868957519531,2.504323482513428,4.06573974609375
1765999925318861000,5.290861083984375,-6.49701452255249,-4.098721981048584,-1.2090251445770264,4.084519287109375
1765999925337640400,5.309640380859375,-2.993571519851685,4.6679792404174805,-1.051417350769043,4.103298583984375
1765999925356419800,5.328419921875,0.9292904734611512,3.288290977478028,7.18320369720459,4.122078125
1765999925384589000,5.356589111328125,0.5403522253036499,-0.4583978652954101,-3.1262264251708984,4.150247314453125
1765999925403368400,5.375368408203125,0.8097301721572876,2.7547664642333984,-7.090411186218262,4.169026611328125
1765999925422147800,5.39414794921875,0.168952465057373,1.1985578536987305,-2.8757169246673584,4.18780615234375
1765999925440927200,5.41292724609375,0.026469349861145,0.095743179321289,-0.2684540748596191,4.20658544921875
1765999925459706600,5.43170654296875,-1.0450427532196045,0.4846200942993164,1.06895649433136,4.22536474609375
1765999925478486000,5.450486083984375,-1.574013590812683,0.2025365829467773,1.599645972251892,4.244144287109375
1765999925497265400,5.469265380859375,-2.309417724609375,-0.9062585830688475,1.2159841060638428,4.262923583984375
1765999925516044800,5.488044921875,-3.194823741912842,-1.5250110626220703,0.9718599319458008,4.281703125
1765999925534824200,5.50682421875,-3.955377101898194,-1.5526528358459473,1.1240599155426023,4.300482421875
1765999925553603600,5.525603515625,-4.074016571044922,-1.7930593490600586,1.5343986749649048,4.31926171875
1765999925572383200,5.54438330078125,-3.9153318405151367,-2.1818504333496094,1.7536412477493286,4.3380415039062505
1765999925591162400,5.563162353515625,-3.911362409591675,-2.205006599426269,1.6930975914001465,4.356820556640625
1765999925609942000,5.58194189453125,-3.476255416870117,-2.1725521087646484,0.9818370938301086,4.37560009765625
1765999925628721400,5.600721435546875,-3.228191375732422,-2.111149311065674,-0.104850172996521,4.394379638671875
1765999925647500800,5.619500732421875,-3.3591907024383545,-2.059790134429932,-0.6567034721374512,4.413158935546875
1765999925666280200,5.6382802734375,-3.322039127349853,-2.2512431144714355,-0.5376718044281006,4.4319384765625
1765999925685059600,5.6570595703125,-3.267664909362793,-2.509375095367432,-0.292730450630188,4.4507177734375
1765999925703839000,5.6758388671875,-3.2759504318237305,-2.5731201171875,0.1415013670921325,4.4694970703125
1765999925722618400,5.694618408203125,-3.067046642303467,-2.3974409103393555,0.4205570518970489,4.488276611328125
1765999925741397800,5.713397705078125,-2.794193983078003,-1.957068920135498,0.271944135427475,4.507055908203125
1765999925760177200,5.73217724609375,-2.532886505126953,-1.4461183547973633,0.153101235628128,4.52583544921875
1765999925778956500,5.75095654296875,-2.425086259841919,-1.2083740234375,0.2601489424705505,4.5446147460937505
1765999925797736000,5.76973583984375,-2.580920696258545,-1.01873779296875,0.1891936212778091,4.56339404296875
1765999925816515300,5.788515380859375,-2.4771573543548584,-1.0813474655151367,0.147881269454956,4.582173583984375
1765999925835294700,5.807294677734375,-2.312475681304932,-1.054363250732422,0.1822261214256286,4.600952880859375
1765999925863464000,5.8354638671875,-1.986511707305908,-0.2775163650512695,0.2036249637603759,4.6291220703125004
1765999925882243300,5.854243408203125,-2.0160999298095703,0.3283519744873047,0.1352155804634094,4.647901611328125
1765999925901022700,5.873022705078125,-1.8046438694000244,0.5072975158691406,-0.1941655874252319,4.6666809082031255
1765999925919802000,5.891802001953125,-1.4966318607330322,0.4230270385742187,-0.6364541053771973,4.685460205078125
1765999925938581500,5.91058154296875,-1.295146942138672,0.5011062622070312,-0.7946131825447083,4.70423974609375
1765999925957361000,5.92936083984375,-1.258656024932861,1.1877126693725586,-0.6283028721809387,4.72301904296875
1765999925976140300,5.948140380859375,-0.9451045989990234,1.596796989440918,-0.3238366246223449,4.741798583984375
1765999925994919700,5.966919677734375,-0.9985957145690918,1.4849328994750977,0.0804024934768676,4.760577880859375
1765999926023089000,5.9950888671875,-0.4435515403747558,1.0761079788208008,0.2913764119148254,4.7887470703125
1765999926041868300,6.013868408203125,-0.0065617561340332,0.5742073059082031,0.6270939707756042,4.807526611328125
1765999926060647700,6.032647705078125,-0.1702089309692382,0.5803489685058594,1.1944303512573242,4.826305908203125
1765999926079427000,6.051427001953125,0.1191606521606445,0.9620800018310548,1.803358793258667,4.845085205078125
1765999926098206500,6.07020654296875,-0.002662181854248,1.2536373138427734,2.3137869834899902,4.86386474609375
1765999926116985900,6.08898583984375,-0.4471583366394043,3.039872169494629,2.949321985244751,4.88264404296875
1765999926135765200,6.10776513671875,5.121283054351807,5.837068557739258,4.690149307250977,4.90142333984375
1765999926154544600,6.126544677734375,6.25147008895874,4.942554473876953,3.5207111835479736,4.920202880859375
1765999926173324000,6.145323974609375,7.192047595977783,6.014692306518555,-1.525307059288025,4.938982177734375
1765999926192103400,6.164103515625,6.643833160400391,5.414034843444824,-5.477300643920898,4.9577617187500005
1765999926210883000,6.182883056640625,4.053199291229248,2.3207664489746094,-7.666784286499023,4.976541259765625
1765999926229662200,6.201662109375,2.7836508750915527,0.1290283203125,-4.498076438903809,4.9953203125000005
1765999926248441900,6.22044189453125,1.871051788330078,-0.4971723556518554,-1.489405393600464,5.01410009765625
1765999926267221200,6.23922119140625,1.5174968242645264,-0.3839683532714844,-0.9307172298431396,5.03287939453125
