time,seconds_elapsed,z,y,x,t
1765999946692228000,26.66422802734375,-0.0129045182839035,-0.1252272725105285,-0.0699440166354179,25.45553857421875
1765999946711007700,26.6830078125,-0.0377972573041915,-0.0626136362552642,-0.0577267222106456,25.474318359375
1765999946729787100,26.701787109375,-0.0594829581677913,0.0238237269222736,-0.0494800470769405,25.49309765625
1765999946748566500,26.72056640625,-0.052152581512928,0.0616973415017128,-0.0398589260876178,25.511876953125
1765999946767346200,26.73934619140625,-0.0293978676199913,0.0310013871639966,-0.0467311553657054,25.530656738281248
1765999946786125600,26.75812548828125,-0.0263435430824756,-0.0729983374476432,-0.0736092031002044,25.54943603515625
1765999946804905200,26.7769052734375,-0.0565813519060611,-0.1704312711954116,-0.129656046628952,25.5682158203125
1765999946823684600,26.7956845703125,-0.0862082913517952,-0.2313650399446487,-0.1791360974311828,25.5869951171875
1765999946842464300,26.81446435546875,-0.0912479236721992,-0.2605338394641876,-0.1992946416139602,25.60577490234375
1765999946861243600,26.83324365234375,-0.0840702652931213,-0.2553414702415466,-0.2067777216434478,25.62455419921875
1765999946880023000,26.85202294921875,-0.083764836192131,-0.2306014597415924,-0.2151771187782287,25.64333349609375
1765999946898802700,26.870802734375,-0.0975092872977256,-0.1872300505638122,-0.2157879769802093,25.66211328125
1765999946917582000,26.88958203125,-0.1193477064371109,-0.1307250559329986,-0.2186895906925201,25.680892578125
1765999946936361700,26.90836181640625,-0.1143080741167068,-0.0728456228971481,-0.2202167510986328,25.69967236328125
1765999946955141000,26.92714111328125,-0.1052978187799453,-0.0471893027424812,-0.2124282270669937,25.71845166015625
1765999946973920500,26.94592041015625,-0.0929278060793876,-0.0403170771896839,-0.2003636509180069,25.73723095703125
1765999946992700200,26.9647001953125,-0.0807105079293251,-0.0534506663680076,-0.1905898153781891,25.7560107421875
1765999947011479600,26.9834794921875,-0.0770453214645385,-0.0832303240895271,-0.1789833754301071,25.7747900390625
1765999947030259200,27.00225927734375,-0.0787251964211463,-0.1264490038156509,-0.1598938554525375,25.79356982421875
1765999947049038600,27.02103857421875,-0.073380134999752,-0.1644753366708755,-0.1345429718494415,25.81234912109375
1765999947067818000,27.03981787109375,-0.0497091226279735,-0.1747073233127594,-0.1067486181855201,25.83112841796875
1765999947086597600,27.05859765625,-0.0266489759087562,-0.1566868126392364,-0.0713184624910354,25.849908203125
1765999947105377000,27.077376953125,-0.0121409371495246,-0.164780780673027,-0.0389426313340663,25.8686875
1765999947124156700,27.09615673828125,-0.001450803829357,-0.1977674663066864,-0.0180205106735229,25.887467285156248
1765999947142936000,27.11493603515625,-0.0051159923896193,-0.2182314395904541,-0.0035124723799526,25.90624658203125
1765999947161715700,27.1337158203125,-0.0106137758120894,-0.2530507445335388,0.0064140800386667,25.9250263671875
1765999947180495000,27.1524951171875,-0.025427246466279,-0.254730612039566,0.0146607551723718,25.9438056640625
1765999947199274500,27.1712744140625,-0.0261908266693353,-0.2457203567028045,0.0128281600773334,25.962584960937498
1765999947218054100,27.19005419921875,-0.0347429327666759,-0.1986837685108184,0.0048869182355701,25.98136474609375
1765999947236833500,27.20883349609375,-0.0371863916516304,-0.1336266696453094,-0.0018325943965464,26.00014404296875
1765999947255613200,27.22761328125,-0.0547487549483776,-0.0491746142506599,0.0232128612697124,26.018923828125
1765999947274392600,27.246392578125,-0.06986765563488,0.0534506663680076,0.0723874792456626,26.037703125
1765999947293172200,27.265172119140622,-0.0605519711971282,0.1612683087587356,0.132404938340187,26.056482666015622
1765999947311951600,27.28395166015625,-0.0327576249837875,0.2136499583721161,0.2054032832384109,26.07526220703125
1765999947330731000,27.30273095703125,-0.0109192077070474,0.1400407552719116,0.2903134822845459,26.09404150390625
1765999947349510700,27.3215107421875,0.0055741411633789,0.0291687939316034,0.370642215013504,26.1128212890625
1765999947368290000,27.3402900390625,0.0594829581677913,-0.0795651376247406,0.453108936548233,26.1316005859375
1765999947387069700,27.359069580078124,0.1593593508005142,-0.1922696828842163,0.546113133430481,26.150380126953124
1765999947405849000,27.37784912109375,0.2833648920059204,-0.2709185183048248,0.675616443157196,26.16915966796875
1765999947424628700,27.39662866210937,0.4324159026145935,-0.4268417656421661,0.8203914165496826,26.18793920898437
1765999947443408100,27.415408203125,0.5390118360519409,-0.6349939107894897,0.948214828968048,26.20671875
1765999947462187500,27.4341875,0.6159807443618774,-0.8839213252067566,1.0526727437973022,26.225498046875
1765999947480967200,27.45296728515625,0.6598103046417236,-1.0687079429626465,1.0972658395767212,26.24427783203125
1765999947499746600,27.47174658203125,0.6672934293746948,-1.1016945838928225,1.0757328271865845,26.26305712890625
1765999947518526200,27.49052612304688,0.7123447060585022,-0.9862411618232728,1.0519092082977295,26.28183666992188
1765999947537305600,27.5093056640625,0.6883682608604431,-0.7837395071983337,1.0323615074157717,26.3006162109375
1765999947556085200,27.528085205078124,0.6515636444091797,-0.4918988645076751,0.9830341339111328,26.319395751953124
1765999947574864600,27.54686474609375,0.6588940024375916,-0.1695149689912796,0.8681915402412415,26.33817529296875
1765999947593644000,27.56564404296875,0.5165625214576721,0.1374445706605911,0.6256782412528992,26.35695458984375
1765999947612423700,27.58442358398437,0.2218202799558639,0.3327685892581939,0.1594357043504715,26.37573413085937
1765999947631203000,27.603203125,-0.1411861181259155,0.3678933084011078,-0.5684096813201904,26.394513671875
1765999947649982700,27.621982666015622,-0.3742310404777527,0.2513708472251892,-1.4256056547164917,26.413293212890622
1765999947668762000,27.64076220703125,-0.5408443808555603,-0.1354592591524124,-2.4162757396698,26.43207275390625
1765999947687541800,27.659541748046877,-0.7297543287277222,-0.6963858604431152,-1.9209406971931458,26.450852294921877
1765999947706321200,27.67832104492188,-0.7422770857810974,-1.008537769317627,-2.4162757396698,26.46963159179688
1765999947725100800,27.697100830078124,-0.6917279958724976,-1.855349063873291,-0.014355322346091201,26.488411376953124
1765999947743880200,27.715880126953124,-0.3943895697593689,-1.3842196464538574,-0.014355322346091201,26.507190673828124
1765999947762659600,27.73465966796875,-0.2076176702976226,-0.9309579133987428,-2.357938051223755,26.52597021484375
1765999947781439200,27.75343920898437,0.7212022542953491,-0.8561269640922546,-1.9184208512306213,26.54474975585937
1765999947800218600,27.77221850585937,0.8755983114242554,-0.7014254927635193,-2.357938051223755,26.56352905273437
1765999947818998300,27.790998291015622,0.3893499374389648,-1.1736239194869995,-1.4789036512374878,26.582308837890622
1765999947837777700,27.809777587890625,0.0710893869400024,-1.2854121923446655,-0.6924152374267578,26.601088134765625
1765999947856557300,27.828557373046877,0.0651334598660469,-0.5138899683952332,0.0729983374476432,26.619867919921877
1765999947875336700,27.84733666992188,0.0358119495213031,0.5079340934753418,0.8558215498924255,26.63864721679688
1765999947894116400,27.866116455078124,0.0101556265726685,1.5008947849273682,1.4984513521194458,26.657427001953124
1765999947912895700,27.884895751953124,0.0697149410843849,2.179412841796875,1.96622097492218,26.676206298828124
1765999947931675100,27.903675048828124,-0.000992655288428,2.618166446685791,2.2168283462524414,26.694985595703123
1765999947950454800,27.92245483398437,-0.104076087474823,2.354425549507141,2.3231186866760254,26.71376538085937
1765999947969234200,27.94123413085937,-0.1573740392923355,2.4995059967041016,2.325256824493408,26.73254467773437
1765999947988013800,27.960013916015622,-0.2276234924793243,2.2093451023101807,2.2507312297821045,26.751324462890622
1765999948006793200,27.978793212890626,-0.2283870726823806,1.7693698406219482,2.1334452629089355,26.770103759765625
1765999948025572900,27.99757275390625,-0.1640935540199279,1.3280199766159058,1.956141710281372,26.78888330078125
1765999948044352300,28.01635229492188,-0.0946076810359954,0.9008728265762328,1.7475314140319824,26.80766284179688
1765999948063132000,28.0351318359375,-0.0613155514001846,0.7197514176368713,1.542128086090088,26.8264423828125
1765999948081911300,28.053911376953124,0.050625417381525,0.72173672914505,1.4085015058517456,26.845221923828124
1765999948100690700,28.072690673828124,0.2687041461467743,0.8797979950904846,1.291215419769287,26.864001220703123
1765999948119470300,28.09147021484375,0.5190060138702393,1.3016000986099243,0.7218894362449646,26.88278076171875
1765999948138249700,28.11024975585937,0.1097265854477882,0.8797979950904846,-1.7771583795547483,26.90156030273437
1765999948157029400,28.129029296875,-0.0369573198258877,0.7620537877082825,-1.6116139888763428,26.92033984375
1765999948175808800,28.147808837890626,-0.1836412250995636,-1.188590168952942,-1.143080711364746,26.939119384765625
1765999948194588400,28.16658837890625,-0.2720639109611511,-2.94711709022522,-0.6082686185836792,26.95789892578125
1765999948213367800,28.18536791992188,-0.233732134103775,-1.188590168952942,-0.5900954008102417,26.97667846679688
1765999948232147500,28.2041474609375,-0.2532798051834106,-0.6717985272407532,-0.651639997959137,26.9954580078125
1765999948250926800,28.2229267578125,-0.1744782477617263,-0.2151771187782287,-0.5299251675605774,27.014237304687498
1765999948269706500,28.24170654296875,-0.117209680378437,0.0099265528842806,-0.4349357187747955,27.03301708984375
1765999948288486000,28.26048583984375,-0.3016908466815948,-0.2872591614723205,-0.4193586707115173,27.05179638671875
1765999948316655000,28.28865502929688,-0.3366628587245941,-0.6766854524612427,-0.3536907136440277,27.07996557617188
1765999948335434800,28.307434814453124,-0.2192240953445434,-0.517707884311676,-0.2900080680847168,27.098745361328124
1765999948354214100,28.326214111328124,-0.1008690446615219,-0.2420551627874374,-0.2040288299322128,27.117524658203124
1765999948372993800,28.34499389648437,-0.0382554084062576,0.0221438482403755,-0.1131627038121223,27.13630444335937
1765999948391773200,28.36377319335937,0.0235946513712406,0.1389717310667038,-0.0334448479115963,27.15508374023437
1765999948410552600,28.38255249023437,0.0840702652931213,0.169362261891365,0.027336198836565,27.17386303710937
1765999948429332200,28.401332275390622,0.1085048541426658,0.2118173688650131,0.0697913020849227,27.192642822265622
1765999948448111600,28.420111572265625,0.1004109010100364,0.2141081094741821,0.1000291109085083,27.211422119140625
1765999948466891300,28.438891357421877,0.0597883909940719,0.1968511790037155,0.1148425787687301,27.230201904296877
1765999948485670700,28.45767065429688,0.0240528006106615,0.1521053314208984,0.1081230640411377,27.24898120117188
1765999948513839900,28.48583984375,0.0162642747163772,0.0829248949885368,0.0791069865226745,27.277150390625
1765999948532619500,28.50461962890625,0.022220205515623,0.0258090365678071,0.0374154672026634,27.29593017578125
1765999948551399000,28.52339892578125,0.0020616685505956,-0.0624609254300594,-0.0106901340186595,27.31470947265625
1765999948570178600,28.54217846679688,0.0332157723605632,-0.2179260104894638,-0.0618500597774982,27.33348901367188
1765999948588958000,28.5609580078125,-0.0095447618514299,-0.0919351503252983,-0.0522289387881755,27.352268554687498
1765999948607737600,28.579737548828124,0.0359646640717983,-0.1189659163355827,-0.0714711770415306,27.371048095703124
1765999948626517000,28.59851708984375,0.0237473677843809,-0.1939495652914047,-0.06276635825634,27.38982763671875
1765999948645296400,28.61729638671875,-0.0196240302175283,-0.2419024556875229,-0.058490302413702,27.40860693359375
1765999948664076000,28.63607592773437,0.0151952616870403,-0.1861610412597656,-0.0368046015501022,27.42738647460937
1765999948682855400,28.65485546875,0.0422260276973247,-0.1000291109085083,0.0007635809597559,27.446166015625
