time,seconds_elapsed,z,y,x,t
1765999940476217600,20.44821752929688,-0.0735328495502471,-0.1948658674955368,-0.1682932525873184,19.23952807617188
1765999940494997000,20.4669970703125,-0.0562759190797805,-0.1913533955812454,-0.1792888194322586,19.2583076171875
1765999940513776600,20.485776611328124,-0.0297033004462718,-0.1872300505638122,-0.1866191923618316,19.277087158203123
1765999940532556000,20.50455615234375,-0.0124463699758052,-0.1931859850883484,-0.1815795600414276,19.29586669921875
1765999940551335700,20.52333569335937,0.011224640533328,-0.1861610412597656,-0.1742491722106933,19.31464624023437
1765999940570115000,20.54211499023437,0.0355065166950225,-0.1569922417402267,-0.1635590493679046,19.33342553710937
1765999940598284300,20.5702841796875,0.0912479236721992,-0.1082757785916328,-0.13423752784729,19.3615947265625
1765999940617063700,20.589063720703123,0.0952185466885566,-0.1180496215820312,-0.1437059342861175,19.380374267578123
1765999940635843000,20.607843017578126,0.0574976466596126,-0.1585194170475006,-0.1779143661260604,19.399153564453126
1765999940654622700,20.62662280273437,0.0168751403689384,-0.2070831656455993,-0.2029598206281662,19.41793334960937
1765999940673402000,20.64540209960937,-0.0135153830051422,-0.2657261788845062,-0.2197585999965667,19.43671264648437
1765999940701571300,20.6735712890625,-0.041767880320549,-0.2918406426906585,-0.2263254076242447,19.4648818359375
1765999940720350700,20.692350830078126,-0.0271071251481771,-0.2904661893844604,-0.1870773434638977,19.483661376953126
1765999940739130400,20.71113037109375,-0.0180968698114156,-0.314748078584671,-0.1514944583177566,19.502440917968748
1765999940757909800,20.72990966796875,-0.0350483655929565,-0.3129154741764068,-0.1191186308860778,19.52122021484375
1765999940776689200,20.748689208984374,-0.067118763923645,-0.296269416809082,-0.0827721804380416,19.539999755859373
1765999940795468800,20.76746875,-0.0944549664855003,-0.2197585999965667,-0.0490218997001647,19.558779296875
1765999940814248200,20.786248291015625,-0.1023962050676345,-0.1243109852075576,-0.009315688163042,19.577558837890624
1765999940833027600,20.805027587890624,-0.0939968153834343,-0.0760526657104492,0.0358883067965507,19.596338134765624
1765999940851807200,20.82380712890625,-0.0917060747742652,-0.0687222853302955,0.0842993408441543,19.61511767578125
1765999940870586600,20.842586669921875,-0.0755181610584259,-0.0441349819302558,0.1542433500289917,19.633897216796875
1765999940889366000,20.861365966796875,-0.0206930451095104,-0.019700389355421,0.2367101013660431,19.652676513671874
1765999940908145700,20.88014575195313,0.0581085123121738,-0.0071776611730456,0.3229947388172149,19.67145629882813
1765999940926925000,20.89892504882813,0.1611919403076172,-0.0733037739992141,0.4405862092971802,19.69023559570313
1765999940945704400,20.917704345703125,0.2917642891407013,-0.1773035079240799,0.5861247777938843,19.709014892578125
1765999940964484000,20.936484130859377,0.4800633490085602,-0.2753472924232483,0.7837395071983337,19.727794677734376
1765999940983263500,20.955263427734376,0.5755109786987305,-0.481819599866867,0.988990068435669,19.746573974609376
1765999941002043000,20.97404296875,0.5851321220397949,-0.523969292640686,1.1242966651916504,19.765353515624998
1765999941020822500,20.992822509765624,0.549091100692749,-0.4673115611076355,1.2089014053344729,19.784133056640623
1765999941039602000,21.011601806640623,0.5084685683250427,-0.3246746361255646,1.211802959442139,19.802912353515623
1765999941058381300,21.03038134765625,0.4473820924758911,-0.2229656428098678,1.0876446962356567,19.82169189453125
1765999941077161000,21.049160888671874,0.3655261993408203,-0.3352120518684387,0.8211549520492554,19.840471435546874
1765999941095940400,21.0679404296875,0.2008981555700302,-0.4931205809116363,0.4276053309440613,19.8592509765625
1765999941114720000,21.086719970703125,0.0800996422767639,-0.5897899270057678,0.0676532760262489,19.878030517578125
1765999941133499400,21.10549951171875,-0.1019380614161491,-0.6267472505569458,-0.2829830944538116,19.89681005859375
1765999941152278800,21.12427880859375,-0.2158643454313278,-0.6104066371917725,-0.8359684348106384,19.91558935546875
1765999941171058400,21.143058349609376,-0.2054796367883682,-0.6221657991409302,-1.701105713844299,19.934368896484376
1765999941189837800,21.161837890625,-0.116751529276371,-1.1357502937316897,-2.726747751235962,19.9531484375
1765999941208617200,21.1806171875,0.0040469793602824,-1.9918773174285889,-3.78568172454834,19.971927734375
1765999941236786400,21.208786376953125,-0.3200167715549469,-3.138317823410034,-3.9445066452026367,20.000096923828124
1765999941255566000,21.227566162109376,-0.3294851779937744,-3.064708709716797,-3.467879295349121,20.018876708984376
1765999941274345500,21.246345458984376,-0.2903898358345032,-1.8889466524124143,-3.956265687942505,20.037656005859375
1765999941293124900,21.26512475585937,0.211130142211914,-0.5581777095794678,-3.5837910175323486,20.05643530273437
1765999941311904500,21.283904541015627,0.737084686756134,0.6044507026672363,-2.637561321258545,20.075215087890626
1765999941340073700,21.31207373046875,0.4395935535430908,0.9260709881782532,-1.2802199125289917,20.10338427734375
1765999941358853000,21.33085302734375,0.5032762289047241,0.4192059636116028,-0.4363101720809936,20.12216357421875
1765999941377632500,21.34963256835937,0.5991820096969604,0.1336266696453094,0.2837466895580292,20.14094311523437
1765999941396412200,21.368412109375,0.5852848291397095,0.3845393657684326,1.0045671463012695,20.15972265625
1765999941415191600,21.387191650390623,0.6252964735031128,0.8434515595436096,1.6514729261398315,20.178502197265622
1765999941433971000,21.405970947265622,0.6758455038070679,1.3642138242721558,2.16536283493042,20.197281494140622
1765999941452750600,21.42475048828125,0.571234941482544,1.835954070091248,2.492786407470703,20.21606103515625
1765999941471530000,21.443530029296877,0.2867246568202972,2.0208933353424072,2.6334381103515625,20.234840576171877
1765999941499699200,21.47169921875,-0.1004109010100364,1.9827144145965576,2.60732364654541,20.263009765625
1765999941518478600,21.490478515625,-0.2137263119220733,1.894902586936951,2.4972152709960938,20.2817890625
1765999941537258200,21.50925830078125,-0.1995237022638321,1.7666209936141968,2.3428192138671875,20.30056884765625
1765999941556037600,21.52803759765625,-0.1731038093566894,1.486692190170288,2.148258686065674,20.31934814453125
1765999941574817000,21.54681713867188,-0.0516944304108619,1.0462586879730225,1.9552254676818848,20.33812768554688
1765999941593596700,21.5655966796875,0.0327576249837875,0.6971494555473328,1.774256706237793,20.356907226562498
1765999941612376000,21.5843759765625,0.1005636155605316,0.406988650560379,1.6268856525421145,20.3756865234375
1765999941631155700,21.60315576171875,0.0031306820455938,0.2495382577180862,1.4587451219558716,20.39446630859375
1765999941659325000,21.63132495117188,-0.0032833982259035,0.2756527364253998,1.143080711364746,20.42263549804688
1765999941678104300,21.65010424804688,-0.0880408883094787,0.291229784488678,0.9146173000335692,20.44141479492188
1765999941696883700,21.6688837890625,-0.1474474817514419,0.2449567764997482,0.7409789562225342,20.4601943359375
1765999941715663400,21.687663330078124,-0.1509599536657333,0.2061668634414672,0.6148353815078735,20.478973876953123
1765999941734442800,21.70644287109375,-0.1129336282610893,0.2674060463905334,0.5145008563995361,20.49775341796875
1765999941753222100,21.72522216796875,-0.0550541877746582,0.3214675784111023,0.3430005609989166,20.51653271484375
1765999941772001800,21.74400170898437,-0.0889571830630302,0.2052505612373352,0.1507308781147003,20.53531225585937
1765999941790781200,21.76278125,-0.1883754283189773,0.0177150778472423,-0.0123700117692351,20.554091796875
1765999941809560600,21.781560546875,-0.2503781914710998,-0.0109955659136176,-0.2226602137088775,20.57287109375
1765999941828340200,21.80034033203125,-0.3065777719020843,0.0809395834803581,-0.5151117444038391,20.59165087890625
1765999941847119600,21.81911962890625,-0.3484219908714294,0.0746782198548317,-0.6206386089324951,20.61043017578125
1765999941865899000,21.83789892578125,-0.2503781914710998,-0.0332921296358108,-0.503505289554596,20.62920947265625
1765999941884678700,21.8566787109375,-0.0541378892958164,-0.1397353112697601,-0.3704894781112671,20.6479892578125
1765999941903458000,21.8754580078125,0.0590248107910156,-0.2533561587333679,-0.3057378232479095,20.6667685546875
1765999941922237700,21.89423779296875,-0.0031306820455938,-0.2762635946273803,-0.2952004075050354,20.68554833984375
1765999941941017000,21.91301708984375,-0.0585666596889495,-0.2979492843151092,-0.2858847081661224,20.704327636718748
1765999941959796500,21.93179638671875,-0.0681877806782722,-0.3426951467990875,-0.2432768940925598,20.72310693359375
1765999941978576100,21.950576171875,-0.0639117285609245,-0.3127627670764923,-0.1789833754301071,20.74188671875
1765999941997355500,21.96935546875,-0.0651334598660469,-0.1635590493679046,-0.1166751757264137,20.760666015625
1765999942016135000,21.988135009765625,-0.0817795246839523,-0.0087048234418034,-0.065057098865509,20.779445556640624
1765999942034914600,22.00691455078125,-0.1042288020253181,0.0526870861649513,-0.0296269413083791,20.79822509765625
1765999942053694000,22.02569384765625,-0.146073043346405,0.0922405794262886,-0.024129157885909,20.81700439453125
1765999942072473300,22.044473388671875,-0.1798233240842819,0.0901025533676147,-0.0276416316628456,20.835783935546875
1765999942091253000,22.0632529296875,-0.1616500914096832,0.0491746142506599,-0.0251981727778911,20.8545634765625
1765999942110032400,22.08203247070313,-0.0973565727472305,-0.0035124723799526,-0.0091629717499017,20.87334301757813
1765999942138201600,22.11020166015625,-0.0008399390499107,-0.1678351014852523,-0.0314595364034175,20.90151220703125
1765999942156981000,22.12898095703125,0.0845284163951873,-0.2842048406600952,-0.0681114196777343,20.92029150390625
1765999942175760600,22.1477607421875,0.1856265366077423,-0.4524980783462524,-0.0818558782339096,20.9390712890625
1765999942194540000,22.1665400390625,0.2264017611742019,-0.5807796716690063,-0.0810922980308532,20.9578505859375
1765999942213319400,22.1853193359375,0.2412152290344238,-0.6798924803733826,-0.057421289384365,20.9766298828125
1765999942232099000,22.20409912109375,0.2422842383384704,-0.6600393652915955,-0.0181732270866632,20.99540966796875
1765999942250878500,22.22287841796875,0.2329685539007187,-0.5352702736854553,0.0423023849725723,21.01418896484375
1765999942269658000,22.241658203125,0.2033416181802749,-0.3959930837154388,0.1221729591488838,21.03296875
1765999942288437500,22.2604375,0.1508072465658188,-0.2961167097091675,0.1907425224781036,21.051748046874998
1765999942307217000,22.279216796875,0.0862082913517952,-0.300392746925354,0.2539670467376709,21.07052734375
1765999942325996500,22.29799658203125,0.0512362830340862,-0.3749182522296905,0.3400989770889282,21.08930712890625
1765999942344776000,22.31677587890625,0.0553596206009388,-0.4214966893196106,0.430506944656372,21.10808642578125
1765999942363555300,22.335555419921874,0.1127809062600135,-0.4743365049362182,0.503810703754425,21.126865966796874
1765999942382335000,22.3543349609375,0.1182786896824836,-0.6036871075630188,0.5761982202529907,21.1456455078125
1765999942401114400,22.3731142578125,0.0839175507426261,-0.7331904768943787,0.6569850444793701,21.1644248046875
1765999942419893800,22.391893798828125,0.0574976466596126,-0.6708822250366211,0.7602212429046631,21.183204345703125
1765999942438673400,22.41067333984375,0.0651334598660469,-0.3935496211051941,0.8830050230026245,21.20198388671875
1765999942457452800,22.429452880859376,-0.057192213833332,-0.0314595364034175,1.0056360960006714,21.220763427734376
1765999942476232400,22.448232421875,-0.2076176702976226,0.273667424917221,1.086881160736084,21.23954296875
1765999942495011800,22.46701171875,-0.238313615322113,0.4648680984973907,1.1180353164672852,21.258322265625
1765999942523181000,22.49518115234375,-0.2121991515159607,0.6924152374267578,0.8216131329536438,21.28649169921875
