time,seconds_elapsed,z,y,x,t
1765999824095355000,23.91435498046875,0.1514944583177566,-0.0961348414421081,0.9950223565101624,18.27200219726563
1765999824114134000,23.933134033203125,0.1314886510372162,-0.1834885030984878,1.0122792720794678,18.290781250000002
1765999824132913200,23.9519130859375,0.085826501250267,-0.2479347437620163,0.9705877900123596,18.309560302734376
1765999824151692300,23.9706923828125,0.0090102553367614,-0.3198640644550323,0.8607848286628723,18.32833959960938
1765999824170471400,23.989471435546875,-0.0891862586140632,-0.3804923892021179,0.7131083011627197,18.347118652343752
1765999824189250300,24.008250244140623,-0.2014326602220535,-0.3833940029144287,0.5620719790458679,18.365897460937497
1765999824208029400,24.027029541015622,-0.3329212963581085,-0.2981783747673034,0.4487565457820892,18.3846767578125
1765999824226808600,24.04580859375,-0.4728093445301056,-0.176005408167839,0.4098139107227325,18.403455810546873
1765999824245587700,24.064587646484377,-0.6143772602081299,-0.0122936535626649,0.437302827835083,18.422234863281254
1765999824264366600,24.08336669921875,-0.7238747477531433,0.0768926069140434,0.50144362449646,18.441013916015628
1765999824283145700,24.102145751953124,-0.7924443483352661,0.0764344558119773,0.5785652995109558,18.45979296875
1765999824301924900,24.1209248046875,-0.836121141910553,-0.0032833982259035,0.6257545948028564,18.478572021484375
1765999824320704000,24.1397041015625,-0.8310815095901489,-0.2546542584896087,0.6480512022972107,18.497351318359378
1765999824339483100,24.158483154296874,-0.7993165850639343,-0.5926151871681213,0.6375137567520142,18.51613037109375
1765999824358262000,24.177261962890626,-0.8009964227676392,-0.8197041749954224,0.6384300589561462,18.534909179687503
1765999824377041200,24.196041259765625,-0.8391754627227783,-0.8620065450668335,0.757243275642395,18.5536884765625
1765999824395820300,24.2148203125,-0.7101303339004517,-1.0458768606185913,0.8250492215156555,18.572467529296873
1765999824414599400,24.233599365234376,-0.1776089370250702,-1.435761332511902,0.6576722860336304,18.591246582031253
1765999824433378600,24.252378662109376,0.7742711305618286,-2.155359983444214,0.4194350242614746,18.61002587890625
1765999824452157400,24.271157470703123,1.772882342338562,-2.996978998184204,0.2574031352996826,18.6288046875
1765999824470936600,24.2899365234375,2.372751474380493,-3.3977062702178955,0.3441459536552429,18.647583740234374
1765999824489715700,24.3087158203125,2.660316228866577,-2.7460663318634038,0.2141844630241394,18.666363037109377
1765999824508494800,24.327494873046877,2.928638458251953,-1.8528292179107664,-0.0567340664565563,18.68514208984375
1765999824527273700,24.346273681640625,3.342193841934204,-1.0835977792739868,-0.3442986607551574,18.703920898437502
1765999824546052900,24.365052978515624,3.758345603942871,-0.7984766364097595,-0.6665298342704773,18.7227001953125
1765999824564832000,24.38383203125,3.960083723068237,-1.2169189453125,-1.089859127998352,18.74147924804688
1765999824583611100,24.40261108398437,4.071871757507324,-1.9380449056625368,-1.6087887287139893,18.760258300781246
1765999824602390000,24.42139013671875,4.071719169616699,-2.609538078308105,-2.035935878753662,18.779037353515626
1765999824621169200,24.44016918945313,3.9128942489624015,-3.0901358127593994,-2.2743258476257324,18.797816406250007
1765999824639948300,24.4589482421875,3.695884704589844,-3.019122838973999,-2.395582675933838,18.816595458984374
1765999824658727400,24.4777275390625,3.2540767192840576,-2.627863883972168,-2.15016770362854,18.835374755859377
1765999824677506600,24.49650659179688,1.6641483306884766,-2.217820882797241,-0.7644209265708923,18.854153808593757
1765999824696285400,24.515285400390624,0.3156643807888031,0.090637058019638,-0.8626174330711365,18.8729326171875
1765999824715064600,24.534064697265624,0.304974228143692,0.7635046243667603,-1.225318431854248,18.891711914062498
1765999824733843700,24.55284375,0.3585776388645172,0.8368083834648132,-1.1529308557510376,18.91049096679688
1765999824752622800,24.57162280273437,-0.4043924808502197,0.905377984046936,-1.0542762279510498,18.929270019531245
1765999824771401700,24.59040161132813,-0.7452550530433655,0.6636282205581665,-0.9156099557876588,18.948048828125003
1765999824790180900,24.609180908203125,-0.7786998748779297,0.3896553814411163,-0.835281252861023,18.966828125
1765999824808960000,24.6279599609375,-0.9085086584091188,0.8287144303321838,-0.6891318559646606,18.985607177734373
1765999824827739100,24.6467392578125,-0.994640588760376,1.2815179824829102,-0.409508466720581,19.004386474609376
1765999824846518300,24.66551831054688,-1.084285020828247,1.5047889947891235,-0.0665079057216644,19.023165527343757
1765999824865297200,24.684297119140624,-1.2275327444076538,1.712788462638855,0.2595411837100982,19.0419443359375
1765999824884076300,24.703076171875,-1.350622057914734,2.013028621673584,0.6175079345703125,19.060723388671875
1765999824902855400,24.72185546875,-1.3833032846450806,2.278601884841919,0.960661232471466,19.079502685546878
1765999824921634600,24.74063452148437,-1.3671153783798218,2.457432746887207,1.2437970638275146,19.098281738281244
1765999824940413400,24.759413330078125,-1.3099994659423828,2.5588362216949463,1.483408808708191,19.117060546875003
1765999824959192600,24.778192626953125,-1.1878265142440796,2.499582290649414,1.689117431640625,19.13583984375
1765999824977971700,24.7969716796875,-1.0192278623580933,2.303647518157959,1.8745149374008176,19.154618896484372
1765999824996750800,24.81575073242188,-0.8639155030250549,2.0893867015838623,2.0388376712799072,19.173397949218753
1765999825015529700,24.83452978515625,-0.7376192212104797,1.8713078498840328,2.148946046829224,19.192177001953127
1765999825034308900,24.853308837890623,-0.5965094566345215,1.6827033758163452,2.2094216346740723,19.2109560546875
1765999825053088000,24.872087890625,-0.4590648710727691,1.4779109954833984,2.2274420261383057,19.229735107421874
1765999825071867100,24.8908671875,-0.3515526950359344,1.2984694242477417,2.2071309089660645,19.248514404296877
1765999825090646000,24.90964599609375,-0.2880227565765381,1.2028690576553345,2.1535274982452397,19.26729321289063
1765999825109425200,24.928425048828124,-0.2510654330253601,1.1481966972351074,2.069228172302246,19.286072265625002
1765999825128204300,24.947204345703124,-0.2351829409599304,1.110781192779541,1.9542328119277956,19.304851562499998
1765999825146983400,24.9659833984375,-0.2417497336864471,1.0116684436798096,1.8002948760986328,19.32363061523438
1765999825165762300,24.98476220703125,-0.2617555558681488,0.921871304512024,1.5758020877838137,19.342409423828123
1765999825184541400,25.00354150390625,-0.287106454372406,0.7004328370094299,1.2954151630401611,19.361188720703126
1765999825203320600,25.022320556640626,-0.3394880890846252,0.4282925724983215,0.9992983937263488,19.3799677734375
1765999825222099700,25.041099609375,-0.3813323378562927,0.1205694377422332,0.6836340427398682,19.398746826171873
1765999825240878800,25.05987890625,-0.4022544622421264,-0.1886808574199676,0.3511708974838257,19.417526123046876
1765999825259657700,25.07865771484375,-0.3854556679725647,-0.4704422354698181,-0.0174860041588544,19.436304931640628
1765999825278436900,25.097436767578124,-0.4202749729156494,-0.6763036847114563,-0.396222174167633,19.455083984375
1765999825297216000,25.116216064453123,-0.5088503360748291,-0.8328377604484558,-0.734183132648468,19.473863281249997
1765999825315995100,25.1349951171875,-0.5942187309265137,-0.936684787273407,-1.0206786394119265,19.492642333984378
1765999825334774000,25.15377392578125,-0.7116574645042419,-0.2201403975486755,-1.5386919975280762,19.511421142578122
1765999825353553200,25.17255322265625,-0.7881683111190796,0.129885122179985,-1.795255184173584,19.530200439453125
1765999825372332300,25.191332275390625,-0.6963858604431152,0.0038942629471421,-1.5974878072738647,19.5489794921875
1765999825391111400,25.210111328125,-0.4532616734504699,-0.3363574147224426,-1.6868267059326172,19.567758544921872
1765999825409890600,25.228890625,-0.2800815105438232,-0.7296016216278076,-1.6402482986450195,19.586537841796876
1765999825428669400,25.24766943359375,-0.1157588735222816,-1.117653489112854,-1.508759617805481,19.605316650390627
1765999825447448600,25.266448486328127,-0.1102610900998115,-1.299538493156433,-1.334663152694702,19.624095703125
1765999825466227700,25.285227783203126,-0.0957530513405799,-0.9200387001037598,-1.1029927730560305,19.642875000000004
1765999825485006800,25.3040068359375,-0.0972802191972732,-0.5344303250312805,-0.9067524075508118,19.661654052734377
1765999825503786000,25.322785888671877,-0.0348192937672138,-0.2204458266496658,-0.7934370040893555,19.68043310546875
1765999825522564900,25.34156494140625,0.0212275516241788,-0.0555123351514339,-0.5174788236618042,19.699212158203125
1765999825541344000,25.360343994140624,0.0542142502963542,-0.0176387205719947,-0.3026071488857269,19.717991210937498
1765999825560123100,25.379123046875,0.1579085439443588,0.0277179889380931,-0.0978147238492965,19.73677026367188
1765999825578902300,25.39790234375,0.2724456787109375,-0.1382845193147659,0.1572213172912597,19.755549560546875
1765999825597681200,25.41668115234375,0.402407169342041,-0.3525453209877014,0.400345504283905,19.774328369140626
1765999825616460300,25.43546020507813,0.5510000586509705,-0.5587121844291687,0.627434492111206,19.793107421875007
1765999825635239400,25.45423950195313,0.7351757884025574,-0.6556869745254517,0.8525381684303284,19.811886718750003
1765999825654018600,25.4730185546875,0.8863648176193237,-0.6112465858459473,1.0933716297149658,19.830665771484377
1765999825672797700,25.49179760742188,0.9917389750480652,-0.4939605295658111,1.3459641933441162,19.849444824218757
1765999825691576800,25.51057690429688,0.9954041838645936,-0.5432878732681274,1.5367066860198977,19.868224121093753
1765999825710355700,25.529355712890624,0.8845322132110596,-0.8641445636749268,1.542509913444519,19.887002929687497
1765999825729134800,25.548134765625,0.6366738080978394,-1.2239439487457275,1.3810888528823853,19.90578198242188
1765999825747914000,25.5669140625,0.2907716333866119,-1.362457513809204,1.1414772272109983,19.924561279296874
1765999825766693000,25.58569311523437,0.1061377525329589,-1.2208895683288574,0.5695550441741943,19.943340332031248
1765999825785472000,25.604471923828125,-0.1363755613565445,-1.0680207014083862,-0.0874300226569175,19.962119140625
1765999825804251100,25.623251220703125,-0.6765327453613281,-1.123304009437561,-0.8259655237197876,19.980898437500002
1765999825823030300,25.6420302734375,-1.30923593044281,-1.5243366956710815,-1.5926008224487305,19.999677490234376
1765999825841809400,25.66080932617188,-1.8764238357543943,-1.9510257244110107,-2.1880412101745605,20.018456542968757
1765999825860588300,25.67958837890625,-2.014479398727417,-1.8626030683517456,-2.650160551071167,20.037235595703123
1765999825879367400,25.698367431640627,-1.881616234779358,-1.2864048480987549,-3.1825292110443115,20.056014648437504
1765999825898146600,25.717146484375,-1.4060579538345337,-0.5069414377212524,-3.643884658813477,20.074793701171878
1765999825916925700,25.73592578125,-1.103679895401001,-0.4246273934841156,-1.9965351819992063,20.093572998046874
1765999825935704800,25.754704833984373,-0.9929606914520264,2.2686753273010254,-2.6379432678222656,20.112352050781247
1765999825954483700,25.773483642578125,0.1175914704799652,2.726365804672241,-2.53256893157959,20.131130859375
1765999825973262800,25.792262939453124,0.4456258714199066,2.3896267414093018,-2.0116541385650635,20.14991015625
1765999825992042000,25.8110419921875,0.065057098865509,1.9524002075195312,-1.6098577976226809,20.168689208984375
1765999826020210700,25.839210693359377,0.1669187992811203,1.5125775337219238,-0.8328377604484558,20.196857910156254
1765999826038989600,25.857989501953124,0.2302960157394409,2.3331217765808105,-0.4330267608165741,20.215636718749998
1765999826057768700,25.876768798828124,0.328645259141922,2.7069709300994877,-0.1497382223606109,20.234416015625
1765999826076547800,25.8955478515625,0.6429351568222046,2.4568216800689697,0.0793360620737075,20.253195068359375
1765999826095327000,25.914326904296875,0.8910989761352539,1.7871612310409546,0.3099375069141388,20.27197412109375
