time,seconds_elapsed,z,y,x,t
1765999820987417900,20.80641796875,3.410983085632324,0.3447484970092773,-1.0342905521392822,15.211012451171875
1765999821006197000,20.82519702148437,3.835965871810913,0.579737663269043,-0.6406623125076294,15.229791503906245
1765999821024976100,20.84397607421875,4.684713840484619,0.3214969635009765,-1.5467127561569214,15.248570556640626
1765999821043755000,20.862755126953125,5.16422176361084,-0.1992683410644531,-2.462856769561768,15.267349609375
1765999821062534100,20.8815341796875,5.857515811920166,-0.4075250625610351,-2.749128818511963,15.286128662109373
1765999821081313300,20.90031323242188,6.30775260925293,-0.2078771591186523,-3.241330146789551,15.304907714843754
1765999821100092400,20.91909252929688,5.955292701721191,0.1854944229125976,-3.911775588989258,15.323687011718754
1765999821118871300,20.937871337890623,5.588271141052246,0.8160762786865234,-4.186092376708984,15.342465820312498
1765999821137650400,20.956650390625,3.562072515487671,1.871243476867676,-3.2517364025115967,15.361244873046875
1765999821156429600,20.9754296875,0.4860353469848633,3.1885643005371094,-0.512866735458374,15.380024169921874
1765999821175208700,20.99420874023437,-0.5683941841125488,5.137651443481445,0.2703848779201507,15.398803222656245
1765999821193987800,21.01298779296875,-1.6266183853149414,5.095909118652344,-0.003539964556694,15.417582275390625
1765999821212766700,21.0317666015625,-2.109818935394287,2.0747509002685547,1.2937606573104858,15.436361083984373
1765999821231545900,21.0505458984375,-3.161141395568848,0.1339254379272461,0.6047309637069702,15.455140380859373
1765999821250325000,21.069324951171875,-3.115927219390869,-0.8379082679748535,0.4326039850711822,15.47391943359375
1765999821278493400,21.097493408203125,-4.184998035430908,-0.0575637817382812,2.178996324539185,15.502087890624999
1765999821297272600,21.1162724609375,-2.4150500297546387,1.007706642150879,3.384214401245117,15.520866943359373
1765999821316051700,21.1350517578125,-2.0999979972839355,1.305832862854004,3.6424522399902335,15.539646240234376
1765999821334830800,21.153830810546875,-2.1123268604278564,0.3704900741577148,2.594240188598633,15.55842529296875
1765999821353609700,21.172609619140623,-2.4926037788391118,-0.1300477981567382,2.169816017150879,15.577204101562497
1765999821372388900,21.191388916015622,-2.1403815746307373,0.1860103607177734,2.265106678009033,15.595983398437497
1765999821391168000,21.21016796875,-0.1632915735244751,-0.2751035690307617,1.758017659187317,15.614762451171874
1765999821409947100,21.228947021484377,-12.225443840026855,-2.023319721221924,-5.542218208312988,15.633541503906251
1765999821428726000,21.24772607421875,4.917369842529297,-0.4225921630859375,-14.151464462280272,15.652320556640625
1765999821447505200,21.266505126953124,-0.4870385527610779,1.2322444915771484,1.4061931371688845,15.671099609374998
1765999821466284300,21.2852841796875,2.369908809661865,-4.330386161804199,6.788395881652832,15.689878662109376
1765999821485063400,21.3040634765625,-1.3626259565353394,-0.5008373260498047,8.636457443237305,15.708657958984375
1765999821503842300,21.32284228515625,-2.297213077545166,-1.2258234024047852,3.1572976112365723,15.727436767578123
1765999821532011000,21.351010986328124,-2.317915916442871,-4.289411544799805,-3.0095367431640625,15.755605468749998
1765999821550790100,21.3697900390625,-2.582054615020752,-3.626230239868164,-1.1394792795181274,15.774384521484375
1765999821569569000,21.388569091796874,-2.761183977127075,-2.1733760833740234,1.6069053411483765,15.793163574218749
1765999821588348200,21.40734814453125,-2.991363286972046,-1.6688213348388672,2.360002994537353,15.811942626953126
1765999821607127300,21.426127197265625,-3.4023566246032715,-2.356897354125977,0.8339788317680359,15.8307216796875
1765999821625906400,21.444906494140625,-3.261659383773804,-3.2656354904174805,-1.1318845748901367,15.8495009765625
1765999821644685600,21.463685546875,-3.057231903076172,-4.0268731117248535,-1.6822025775909424,15.868280029296873
1765999821663464400,21.48246435546875,-3.1983375549316406,-4.041184425354004,-1.0220316648483276,15.887058837890624
1765999821682243600,21.50124365234375,-3.420648097991944,-3.584402084350586,-0.1243433058261871,15.905838134765624
1765999821701022700,21.520022705078127,-3.397252321243286,-2.904022216796875,0.2978373169898987,15.9246171875
1765999821719801900,21.5388017578125,-3.175164699554444,-2.2206544876098637,0.2072040736675262,15.943396240234375
1765999821738580700,21.557580810546877,-2.645083427429199,-1.7124223709106443,-0.7584136724472046,15.962175292968752
1765999821757359900,21.57635986328125,-1.923703670501709,-1.3694238662719729,-1.622287034988403,15.980954345703125
1765999821776139000,21.595138916015625,-1.5155186653137207,-1.0566511154174805,-2.085012435913086,15.999733398437499
1765999821794918000,21.61391796875,-1.5885467529296875,-0.9750585556030272,-1.95746386051178,16.018512451171873
1765999821813697000,21.632697021484372,-1.6360845565795898,-0.9891805648803712,-1.2147514820098877,16.037291503906246
1765999821832476200,21.65147607421875,-1.731213092803955,-0.7164740562438965,-0.7146967649459839,16.056070556640623
1765999821851255300,21.67025537109375,-1.711721420288086,-0.3773436546325683,-0.3379293084144592,16.074849853515623
1765999821870034200,21.6890341796875,-1.6064567565917969,-0.0766210556030273,-0.0480729937553405,16.093628662109374
1765999821888813300,21.707813232421877,-1.4585027694702148,0.1542935371398925,0.4168606996536255,16.11240771484375
1765999821907592400,21.72659252929688,-1.241741180419922,0.3370909690856933,0.7549293041229248,16.131187011718755
1765999821926371600,21.74537158203125,-1.27382230758667,0.5955591201782227,1.2349684238433838,16.149966064453125
1765999821945150700,21.764150634765624,-1.3571553230285645,0.7423744201660156,1.5837472677230835,16.1687451171875
1765999821963929600,21.7829296875,-1.6295747756958008,1.4133682250976562,1.3732608556747437,16.187524169921875
1765999821982708700,21.80170874023437,-1.1483707427978516,3.6783971786499023,2.512669801712036,16.206303222656246
1765999822001488000,21.82048779296875,2.193164110183716,4.754153251647949,2.435293674468994,16.225082275390623
1765999822020267000,21.83926708984375,2.4421169757843018,5.698026657104492,0.5066779255867004,16.243861572265626
1765999822039046000,21.8580458984375,3.923963308334351,6.733287811279297,-2.854872465133667,16.262640380859374
1765999822057825000,21.87682495117188,4.892954349517822,4.892005920410156,-3.8844051361083984,16.281419433593754
1765999822076604200,21.89560424804688,4.618176937103272,2.6766433715820312,-4.715263366699219,16.300198730468754
1765999822095383300,21.91438330078125,3.532451868057251,1.6876544952392578,-5.647139072418213,16.318977783203124
1765999822114162200,21.933162109375,2.072646141052246,1.4120941162109375,-4.189566135406494,16.337756591796875
1765999822132941300,21.95194140625,1.5350580215454102,0.6976222991943359,-2.4219350814819336,16.356535888671875
1765999822151720400,21.97072045898437,2.206348657608032,-0.529170036315918,-0.1943514943122863,16.375314941406245
1765999822170499600,21.98949951171875,1.1595709323883057,-0.9575510025024414,1.7264751195907593,16.394093994140626
1765999822189278500,22.008278564453125,-0.0216825008392334,-0.6648702621459961,2.5649664402008057,16.412873046875
1765999822208057600,22.0270576171875,-0.4225118160247803,-0.6826705932617188,2.717182159423828,16.431652099609373
1765999822226836700,22.04583666992188,-0.4241905212402344,-0.7734088897705078,1.6247196197509766,16.450431152343754
1765999822245615900,22.064615966796875,-0.5968782901763916,-0.5554475784301758,0.8598117828369141,16.46921044921875
1765999822264394800,22.083394775390627,-0.8332843780517578,-0.1902523040771484,0.6436625719070435,16.4879892578125
1765999822283174000,22.102173828125,-1.2155170440673828,-0.0238323211669921,0.5255155563354492,16.506768310546875
1765999822301953000,22.120953125,-0.9897632598876952,-0.0848636627197265,0.3689505457878113,16.525547607421874
1765999822320732200,22.139732177734373,-0.2414546012878418,-0.8646736145019531,-0.3467794954776764,16.544326660156248
1765999822339511300,22.15851123046875,0.4034910202026367,-1.3442301750183103,-0.4196005463600158,16.563105712890625
1765999822358290200,22.177290283203124,1.3511786460876465,-0.763737678527832,-0.7232661843299866,16.581884765625
1765999822377069300,22.1960693359375,1.9047731161117556,1.216230392456055,-0.8994845151901245,16.600663818359376
1765999822395848400,22.214848388671875,2.3090243339538574,2.021328926086426,-0.9066282510757446,16.61944287109375
1765999822414627600,22.233627685546875,2.555380344390869,1.4499034881591797,-0.708634614944458,16.63822216796875
1765999822433406500,22.252406494140622,3.4217491149902344,0.4508419036865234,-0.5568263530731201,16.657000976562497
1765999822452185600,22.271185546875,4.868771076202393,0.5831470489501953,-0.9749058485031128,16.675780029296874
1765999822470964700,22.28996484375,5.845381736755371,0.5933256149291992,-2.136874198913574,16.694559326171873
1765999822489744000,22.308743896484376,5.908448219299316,0.1903610229492187,-3.37061619758606,16.71333837890625
1765999822508523000,22.32752294921875,6.144190788269043,-0.4258918762207031,-4.193187713623047,16.732117431640624
1765999822527302000,22.346302001953124,5.856111526489258,-0.2732677459716797,-5.040205955505371,16.750896484374998
1765999822546081000,22.3650810546875,6.167006969451904,0.138859748840332,-6.2524518966674805,16.769675537109375
1765999822564860200,22.383860107421874,5.638683319091797,0.909423828125,-6.646278381347656,16.78845458984375
1765999822583639300,22.402639404296878,2.506648302078247,3.222407341003418,-6.270542621612549,16.807233886718752
1765999822602418400,22.42141845703125,-1.4777231216430664,6.195425033569336,-6.284581184387207,16.826012939453125
1765999822621197300,22.440197265625,-3.3577146530151367,6.725704193115234,-5.775742530822754,16.844791748046873
1765999822639976400,22.4589765625,-2.858809471130371,3.3310556411743164,-3.5261683464050293,16.863571044921873
1765999822658755600,22.477755615234376,-1.987816333770752,-0.535456657409668,-0.6835514903068542,16.88235009765625
1765999822677534700,22.49653466796875,-2.3118371963500977,-2.221355438232422,1.742110252380371,16.901129150390624
1765999822696313600,22.515313720703126,-2.730517864227295,-2.776200771331787,3.5228536128997803,16.919908203125
1765999822715092700,22.5340927734375,-3.14597749710083,-2.454955577850342,4.153993606567383,16.938687255859374
1765999822733871900,22.552871826171877,-2.7764668464660645,-1.9381556510925293,3.0262157917022705,16.95746630859375
1765999822752651000,22.571651123046877,-1.1067180633544922,-1.024655818939209,1.3305869102478027,16.97624560546875
1765999822771430100,22.59043017578125,-0.1250619888305664,-0.9461798667907716,-0.1727003157138824,16.995024658203125
1765999822790209000,22.609208984375,0.9842643737792968,-1.4877643585205078,-0.1943412721157074,17.013803466796876
1765999822818377700,22.637377685546877,0.2184152603149414,-2.759588718414306,2.402573108673096,17.04197216796875
1765999822837156900,22.65615698242188,-0.3195304870605469,-2.356618881225586,3.863670825958252,17.060751464843754
1765999822855935700,22.674935791015624,-0.9239277839660645,-1.3450698852539062,5.068816184997559,17.0795302734375
1765999822874715000,22.69371484375,-1.752861499786377,-0.7343149185180664,6.121735095977783,17.098309326171876
1765999822893494000,22.71249389648437,-2.360922336578369,-0.3944597244262695,5.775440692901611,17.117088378906246
1765999822921662700,22.74066284179688,-3.144103527069092,0.5940828323364258,4.008091926574707,17.145257324218754
1765999822940441600,22.759441650390624,-2.5956478118896484,2.018361091613769,3.2566704750061035,17.164036132812498
1765999822959220700,22.778220703125,-1.0501468181610107,3.7993860244750977,4.132684707641602,17.182815185546875
1765999822978000000,22.79699975585937,-0.8403918147087097,4.918760299682617,5.395663261413574,17.201594238281245
1765999822996779000,22.81577905273437,0.7964150309562683,4.026519775390625,5.906660079956055,17.220373535156245
1765999823015558000,22.834557861328125,-13.16236400604248,0.4579000473022461,-2.05187463760376,17.23915234375
