time,seconds_elapsed,z,y,x,t
1765999806856196400,6.6751962890625,-0.0742200687527656,-0.8545234799385071,-5.419363021850586,1.0328435058593746
1765999806874975200,6.693975341796875,-0.6253728270530701,-1.8264093399047847,-3.906251192092896,1.05162255859375
1765999806893754400,6.71275439453125,-1.242040753364563,-0.5060251355171204,-4.746037483215332,1.0704016113281245
1765999806912533200,6.731533203125,-0.6372846961021423,0.1153770834207534,-4.678231716156006,1.0891804199218749
1765999806931312400,6.7503125,-0.8272636532783508,-1.5477023124694824,-4.003531455993652,1.1079597167968744
1765999806950091300,6.76909130859375,-0.6656898856163025,-0.8922443389892578,-2.9988114833831787,1.1267385253906248
1765999806968870100,6.7878701171875,0.0345138609409332,0.1457676142454147,-1.5296818017959597,1.1455173339843752
1765999806987649300,6.806649169921875,0.6954695582389832,1.4424808025360107,0.0161115583032369,1.1642963867187497
1765999807006428200,6.82542822265625,1.0094540119171145,2.277227640151977,1.2975531816482544,1.183075439453125
1765999807025207000,6.84420703125,1.4085015058517456,2.5756349563598637,2.234314203262329,1.2018542480468746
1765999807043986200,6.862986083984375,1.7001893520355225,2.25905442237854,2.814635753631592,1.22063330078125
1765999807062765000,6.88176513671875,1.8388557434082031,1.7141629457473757,3.185430765151977,1.2394123535156245
1765999807090933500,6.90993359375,1.7481422424316406,1.45530903339386,3.541259527206421,1.2675808105468747
1765999807109712600,6.928712646484375,1.554650902748108,1.70011305809021,3.5733299255371094,1.28635986328125
1765999807128491500,6.947491455078125,1.3617702722549438,1.9672136306762693,3.5378997325897217,1.3051386718749995
1765999807147270400,6.9662705078125,1.1988221406936646,2.0261621475219727,3.3844199180603027,1.323917724609375
1765999807166049500,6.985049560546875,1.0596976280212402,1.874820351600647,3.130452871322632,1.3426967773437495
1765999807184828400,7.003828369140625,0.953559935092926,1.5318198204040527,2.7908120155334477,1.3614755859374998
1765999807203607300,7.022607177734375,0.8210022449493408,1.0302997827529907,2.435136079788208,1.3802543945312493
1765999807222386400,7.041386474609375,0.6174315810203552,0.6055960655212402,2.0626611709594727,1.3990336914062498
1765999807241165300,7.060165283203125,0.3636172711849212,0.4667770564556122,1.612301230430603,1.4178125000000001
1765999807259944200,7.078944091796875,0.0797178521752357,0.474260151386261,1.0825287103652954,1.4365913085937496
1765999807278723300,7.097723388671875,-0.2790125012397766,0.581008791923523,0.474718302488327,1.45537060546875
1765999807297502200,7.116502197265625,-0.6104066371917725,1.3598613739013672,-0.4472293853759765,1.4741494140624996
1765999807316281300,7.13528125,-0.8807142972946167,2.1327579021453857,-1.8546618223190308,1.492928466796875
1765999807335060200,7.154060302734375,-1.050840139389038,1.5234204530715942,-1.9740859270095823,1.5117075195312495
1765999807353839000,7.172839111328125,-0.3368919193744659,0.7267000079154968,-1.8642829656600952,1.5304863281249999
1765999807372618200,7.1916181640625,0.2182314395904541,-0.7303652167320251,-1.884594202041626,1.5492653808593744
1765999807391397000,7.210397216796875,0.05467239767313,-0.8482621312141418,-1.3439788818359375,1.5680444335937498
1765999807410176000,7.229176025390625,0.0030543238390237,-0.7387645840644836,-0.9832631945610046,1.5868232421875001
1765999807428955100,7.247955078125,0.258853942155838,-0.3336085379123688,-0.591088056564331,1.6056022949218747
1765999807447734000,7.266734130859375,0.3892735838890075,-0.1311068534851074,-0.3090212345123291,1.62438134765625
1765999807466513200,7.28551318359375,0.4303542375564575,-0.1362992078065872,-0.2325104027986526,1.6431604003906246
1765999807485292000,7.3042919921875,0.3452913165092468,-0.2103665620088577,-0.2583194375038147,1.661939208984375
1765999807504071200,7.3230712890625,0.2964221239089966,-0.1630245447158813,-0.2758817970752716,1.6807185058593745
1765999807522850000,7.34185009765625,0.2770271897315979,-0.0148898288607597,-0.2482401728630066,1.699497314453125
1765999807541629000,7.36062890625,0.1759290546178817,0.1937204897403717,-0.2112828493118286,1.7182761230468744
1765999807560408000,7.379407958984375,0.0891862586140632,0.3580431044101715,-0.1705076247453689,1.7370551757812498
1765999807579187000,7.39818701171875,0.0658206790685653,0.4153116941452026,-0.1170569658279419,1.7558342285156243
1765999807597966000,7.416966064453125,0.0649043843150138,0.3549887835979461,-0.0497091226279735,1.7746132812499997
1765999807616745000,7.435744873046875,0.0325285494327545,0.2761872410774231,0.0194713156670331,1.79339208984375
1765999807635523800,7.45452392578125,-0.0080939587205648,0.2308305352926254,0.0636062920093536,1.8121711425781246
1765999807654303000,7.473302978515625,-0.0644462332129478,0.2740492224693298,0.0663551837205886,1.8309501953125
1765999807673081900,7.492081787109375,-0.1209512278437614,0.3238346874713897,0.0316886119544506,1.8497290039062495
1765999807691861000,7.510861083984375,-0.1802051067352295,0.3760636150836944,-0.0182495843619108,1.86850830078125
1765999807710639900,7.529639892578125,-0.2591593861579895,0.377285361289978,-0.057192213833332,1.8872871093749994
1765999807729418800,7.548418701171875,-0.324063777923584,0.326583594083786,-0.0808632224798202,1.9060659179687498
1765999807748198000,7.567197998046875,-0.3584249019622803,0.238771766424179,-0.0915533602237701,1.9248452148437494
1765999807766976800,7.585976806640625,-0.3714057803153991,0.1304959952831268,-0.0697149410843849,1.9436240234374997
1765999807785756000,7.604755859375,-0.3920224606990814,0.0063377222977578,-0.0139735322445631,1.9624030761718751
1765999807813924400,7.63292431640625,-0.3865246772766113,-0.20609050989151,0.1227074638009071,1.9905715332031244
1765999807832703200,7.651703125,-0.3344484567642212,-0.3001636862754822,0.2512944936752319,2.0093503417968748
1765999807851482400,7.670482421875,-0.2641990184783935,-0.4235583543777466,0.4069122970104217,2.0281296386718743
1765999807870261200,7.68926123046875,-0.1565341055393219,-0.6239219903945923,0.5923097729682922,2.0469084472656247
1765999807889040100,7.7080400390625,-0.040469791740179,-0.8245911002159119,0.8363502621650696,2.065687255859375
1765999807907819300,7.7268193359375,0.1400407552719116,-0.9582177400588988,1.0784053802490234,2.0844665527343746
1765999807926598100,7.74559814453125,0.4433351159095764,-0.8429170250892639,1.3294708728790283,2.103245361328125
1765999807945377300,7.764377197265625,0.8297070860862732,-0.8478039503097534,1.559308648109436,2.1220244140624995
1765999807964156200,7.78315625,1.0826051235198977,-1.041906237602234,1.6358195543289185,2.140803466796875
1765999807982935300,7.801935302734375,1.1305580139160156,-1.3566542863845823,1.560835838317871,2.1595825195312495
1765999808001714200,7.820714111328125,1.0986403226852417,-1.6544508934020996,1.2173771858215332,2.178361328125
1765999808020493000,7.8394931640625,1.05022931098938,-1.863977551460266,0.7486911416053772,2.1971403808593744
1765999808039272200,7.858272216796875,1.076801896095276,-1.9154428243637085,0.176005408167839,2.2159194335937498
1765999808058051000,7.877051025390625,1.1230748891830444,-1.823049545288086,-0.5710822343826294,2.2346982421875
1765999808076830000,7.895829833984375,0.8940005898475647,-1.8705443143844604,-1.3885719776153564,2.2534770507812496
1765999808095609000,7.914609130859375,0.5661189556121826,-2.143906354904175,-2.1680355072021484,2.27225634765625
1765999808114388000,7.933387939453125,0.4034761786460876,-2.4901139736175537,-2.74560809135437,2.2910351562499995
1765999808133167000,7.9521669921875,0.3029889166355133,-2.703152894973755,-3.0928847789764404,2.309814208984375
1765999808151946000,7.970946044921875,0.3565923273563385,-2.568609952926636,-3.3053128719329834,2.3285932617187495
1765999808170724900,7.989724853515625,0.411570131778717,-2.1400883197784424,-3.406258344650269,2.3473720703125
1765999808189504000,8.00850390625,0.3303251266479492,-1.6636139154434204,-3.345935583114624,2.3661511230468752
1765999808208283000,8.027282958984374,0.1745546162128448,-1.47424578666687,-2.795088052749634,2.384930175781249
1765999808227062000,8.04606201171875,0.2254091054201126,-2.401996612548828,-2.127107620239258,2.4037092285156243
1765999808245841000,8.0648408203125,-0.1038470119237899,-1.01472270488739,-1.2902227640151978,2.4224880371093755
1765999808264619800,8.083619873046874,0.2919933497905731,-1.6084833145141602,-1.4462987184524536,2.441267089843749
1765999808283399000,8.10239892578125,0.1690568327903747,-0.5304597020149231,-0.7676279544830322,2.4600461425781246
1765999808302177800,8.121177734375,-0.3762927055358886,1.5389974117279053,-0.4069122970104217,2.478824951171874
1765999808320957000,8.13995703125,-0.3969093859195709,2.5282928943634038,-0.0704785212874412,2.4976042480468754
1765999808339735800,8.15873583984375,-0.2565632164478302,2.3505313396453857,0.1738673895597458,2.516383056640624
1765999808358514700,8.1775146484375,-0.1035415828227996,1.4171298742294312,0.4434114694595337,2.5351618652343735
1765999808377293800,8.1962939453125,0.0193949565291404,0.6475930213928223,0.936684787273407,2.553941162109373
1765999808396072700,8.21507275390625,0.0662788301706314,0.6953932046890259,1.321376919746399,2.5727199707031243
1765999808414851800,8.233851806640626,0.0079412423074245,1.2905281782150269,1.5441898107528689,2.5914990234374997
1765999808433630700,8.252630615234375,0.0296269413083791,1.838779330253601,1.6700279712677002,2.610277832031249
1765999808452409600,8.27140966796875,0.096669353544712,1.922162413597107,1.782885193824768,2.6290568847656246
1765999808471188700,8.290188720703124,0.1194240674376487,1.6320016384124756,1.8746676445007324,2.6478359374999982
1765999808489967600,8.308967529296876,0.1125518381595611,1.211115837097168,1.9511784315109253,2.6666147460937495
1765999808508746800,8.327746826171875,0.1224783882498741,0.8911753296852112,2.004323720932007,2.685394042968749
1765999808527525600,8.346525634765625,0.1269071549177169,0.7741947770118713,2.016388177871704,2.7041728515624985
1765999808555694000,8.374694091796876,0.141262486577034,0.7741947770118713,1.9473605155944824,2.7323413085937496
1765999808574473200,8.39347314453125,0.1673769503831863,0.6764563918113708,1.863519310951233,2.751120361328123
1765999808593252000,8.412252197265625,0.1550069451332092,0.4664716124534607,1.7401247024536133,2.7698994140624986
1765999808612031000,8.431031005859374,0.1041524484753608,0.2146426141262054,1.5915318727493286,2.788678222656248
1765999808630810000,8.44981005859375,0.0349720083177089,0.0376445427536964,1.4084250926971436,2.8074572753906235
1765999808649589000,8.468589111328125,-0.0349720083177089,-0.107283130288124,1.2179880142211914,2.826236328124999
1765999808668368000,8.487367919921875,-0.0720820426940918,-0.2667188346385956,1.055039882659912,2.8450151367187484
1765999808687147000,8.50614697265625,-0.1026252806186676,-0.2407570779323578,0.8216894865036011,2.863794189453124
1765999808705926000,8.52492578125,-0.1374445706605911,-0.2781725525856018,0.5498546361923218,2.8825729980468733
1765999808734094300,8.55309423828125,-0.29214608669281,-0.404926985502243,0.1451567411422729,2.9107414550781243
1765999808752873500,8.57187353515625,-0.4225656986236572,-0.3789652287960052,-0.0955239832401275,2.929520751953124
1765999808771652400,8.59065234375,-0.4477638900279999,-0.0889571830630302,-0.307494044303894,2.9482995605468734
1765999808790431500,8.609431396484375,-0.7241802215576172,1.2859467267990112,-1.0906226634979248,2.9670786132812488
1765999808809210400,8.62821044921875,-1.1184934377670288,1.3589450120925903,-1.3082432746887207,2.985857666015624
1765999808827989500,8.646989501953126,-1.0784817934036257,1.064660906791687,-1.26426100730896,3.0046367187499996
1765999808846768400,8.665768310546875,-0.406988650560379,0.5478693246841431,-1.300302028656006,3.023415527343749
1765999808865547300,8.68454736328125,0.0896444097161293,-0.26137375831604,-1.451796531677246,3.0421945800781245
1765999808884326400,8.703326416015624,0.1566868126392364,-1.190346360206604,-1.3705514669418335,3.060973632812498
