time,seconds_elapsed,z,y,x,t
1765999827100007700,26.919007568359376,-1.3765838146209717,0.0799469277262687,-0.3249036967754364,21.276654785156254
1765999827118786800,26.937786865234376,-1.935525059700012,-0.8740711212158203,-1.0742820501327517,21.29543408203125
1765999827137565700,26.956565673828123,-2.460716009140014,-1.6203951835632324,-1.8633666038513184,21.314212890625
1765999827156344800,26.9753447265625,-2.9933900833129883,-2.1461970806121826,-2.601749420166016,21.332991943359374
1765999827175124000,26.9941240234375,-3.3521203994750977,-2.487059593200684,-3.3366198539733887,21.351771240234378
1765999827193903000,27.012903076171877,-3.338834285736084,-2.496527910232544,-4.018192291259766,21.37055029296875
1765999827212682000,27.031681884765625,-3.014312267303467,-1.949498534202576,-4.673192024230957,21.389329101562502
1765999827231461000,27.050461181640625,-2.338543176651001,-0.9395864009857178,-5.037420272827148,21.4081083984375
1765999827250240300,27.069240234375,-1.62505304813385,0.0909424945712089,-5.131034851074219,21.426887451171872
1765999827269019400,27.088019287109372,-1.3665045499801636,0.4829649627208709,-4.823770046234131,21.445666503906246
1765999827297188000,27.11618798828125,-1.265711784362793,0.1799760311841964,-2.3772566318511963,21.473835205078124
1765999827315967000,27.134967041015624,-0.3112356066703796,1.8064035177230835,-2.263025045394897,21.492614257812498
1765999827334746000,27.15374609375,-0.1328630894422531,-0.1007163301110267,-1.7987676858901978,21.51139331054688
1765999827353525200,27.17252514648437,-0.1472184062004089,0.2538906633853912,-1.607872486114502,21.530172363281245
1765999827372304400,27.19130444335937,-0.0479528866708278,0.884913980960846,-1.2989275455474854,21.54895166015625
1765999827391083300,27.21008325195313,0.136986419558525,1.0822232961654663,-1.01945698261261,21.567730468750007
1765999827409862400,27.2288623046875,0.1884517818689346,1.473940372467041,-0.81099933385849,21.586509521484373
1765999827428641500,27.2476416015625,0.2417497336864471,1.5460224151611328,-0.5240456461906433,21.605288818359377
1765999827447420700,27.26642065429688,0.4468475878238678,1.3187806606292725,-0.2264017611742019,21.624067871093757
1765999827466199800,27.28519970703125,0.6491965651512146,1.0173189640045166,-0.0159588418900966,21.642846923828124
1765999827484978700,27.303978759765624,0.8161153197288513,0.5362629294395447,0.1611919403076172,21.661625976562497
1765999827522537000,27.34153686523437,1.1523964405059814,-0.3233765363693237,0.3989710509777069,21.699184082031245
1765999827541316000,27.36031616210937,1.2385283708572388,-0.5263363718986511,0.4626537263393402,21.717963378906248
1765999827560095000,27.379094970703125,1.201570987701416,-0.6504946351051331,0.3632354736328125,21.7367421875
1765999827578874000,27.3978740234375,1.148425817489624,-0.6248382925987244,0.1801287531852722,21.755521240234373
1765999827597653200,27.4166533203125,1.054658055305481,-0.6228529810905457,-0.0591775253415107,21.774300537109376
1765999827616432400,27.43543237304688,0.91751891374588,-0.6708058714866638,-0.3215439617633819,21.793079589843757
1765999827644601000,27.46360107421875,0.4838049113750458,-0.7801506519317627,-0.6393463611602783,21.82124829101563
1765999827663380000,27.4823798828125,0.2318231910467147,-0.8565087914466858,-0.7476221323013306,21.840027099609372
1765999827682159000,27.5011591796875,0.0873536616563797,-0.6880627870559692,-0.8336013555526733,21.858806396484376
1765999827700938200,27.519938232421875,-0.3645335435867309,0.2013563066720962,-1.4756202697753906,21.87758544921875
1765999827719717400,27.53871728515625,-1.4269801378250122,0.6318632364273071,-1.7531055212020874,21.896364501953123
1765999827738496300,27.557496337890623,-1.011133909225464,0.2551124095916748,-1.1553744077682495,21.915143554687496
1765999827757275400,27.576275390625,-0.5148062705993652,0.5628355145454407,-0.7763327956199646,21.933922607421877
1765999827776054500,27.595054443359373,-0.3830122053623199,0.7575486898422241,-0.5973494052886963,21.95270166015625
1765999827794833700,27.613833740234377,-0.2382372617721557,-0.0287870019674301,-0.4944186806678772,21.971480957031254
1765999827823002000,27.642002197265622,-0.210901066660881,-0.6210203766822815,-0.3907243907451629,21.999649414062496
1765999827841781200,27.66078125,-0.116980604827404,-0.5635991096496582,-0.3627773225307464,22.018428466796877
1765999827860560400,27.679560302734377,-0.0436768308281898,-0.5694023370742798,-0.3530034720897674,22.03720751953125
1765999827888729000,27.70772900390625,0.0216856990009546,-0.4799106419086456,-0.2738964855670929,22.065376220703122
1765999827907508200,27.72650830078125,0.0633772239089012,-0.4476875364780426,-0.2593884468078613,22.084155517578125
1765999827926287000,27.745287109375,0.0600174628198146,-0.2922224402427673,-0.2482401728630066,22.102934326171876
1765999827945066200,27.764066162109376,0.0453567095100879,-0.0350483655929565,-0.2076176702976226,22.12171337890625
1765999827963845400,27.782845458984376,0.0395534932613372,0.147905632853508,-0.1731038093566894,22.140492675781253
1765999827982624500,27.80162451171875,0.0132863093167543,0.1509599536657333,-0.1576794683933258,22.159271728515627
1765999828020182500,27.8391826171875,0.0398589260876178,-0.0834593996405601,-0.1402698308229446,22.196829833984374
1765999828038961700,27.857961669921878,0.0053450670093297,-0.1327867358922958,-0.1546251475811004,22.215608886718755
1765999828057740800,27.87674072265625,-0.0565049909055233,-0.1300378441810608,-0.1837939471006393,22.23438793945313
1765999828085909500,27.904909423828126,-0.1020144149661064,-0.1086575761437416,-0.2079230993986129,22.262556640625
1765999828104688600,27.92368872070313,-0.1194240674376487,-0.0881936028599739,-0.1726456582546234,22.281335937500003
1765999828123467500,27.942467529296877,-0.13423752784729,-0.0578030794858932,-0.1106428802013397,22.300114746093755
1765999828142246700,27.96124658203125,-0.1003345400094986,-0.2433532625436782,-0.0229837875813245,22.318893798828128
1765999828161025800,27.98002587890625,-0.0343611426651477,-0.645455002784729,0.0461966507136821,22.337673095703124
1765999828179805000,27.998804931640624,-0.0192422401160001,-0.8646027445793152,0.0819322392344474,22.356452148437498
1765999828198584000,28.017583984375,-0.0656679645180702,-0.7537307739257812,0.1242346242070198,22.37523120117188
1765999828217363000,28.03636303710937,-0.1111773923039436,-0.5611556768417358,0.1735619604587555,22.394010253906245
1765999828236142000,28.05514208984375,-0.1299614757299423,-0.4814378023147583,0.212962731719017,22.412789306640626
1765999828254921200,28.07392114257813,-0.1073594838380813,-0.6364447474479675,0.2606101930141449,22.431568359375007
1765999828273700400,28.092700439453125,-0.026267185807228,-0.9343940615653992,0.373162031173706,22.450347656250003
1765999828292479500,28.1114794921875,0.0917824357748031,-1.088331937789917,0.4421897530555725,22.469126708984376
1765999828311258600,28.13025854492188,0.1632536053657531,-1.1784344911575315,0.5687914490699768,22.487905761718757
1765999828330037500,28.14903759765625,0.2301433086395263,-1.2734240293502808,0.7071523666381836,22.506684814453124
1765999828348816600,28.167816650390623,0.3391826748847961,-1.3598613739013672,0.8853721618652344,22.525463867187497
1765999828367595800,28.186595703125,0.4941896200180053,-1.5037200450897217,1.1000910997390747,22.544242919921878
1765999828386375000,28.205375,0.6630937457084656,-1.8256458044052124,1.3600140810012815,22.563022216796874
1765999828405154000,28.224154052734374,0.8028290271759033,-2.072129726409912,1.5982513427734375,22.581801269531248
1765999828423933000,28.242932861328125,0.884379506111145,-2.119471788406372,1.795255184173584,22.600580078125
1765999828442712000,28.261712158203125,0.842382550239563,-1.798309564590454,1.9203298091888428,22.619359375000002
1765999828461491200,28.2804912109375,0.5207622051239014,-1.4090359210968018,1.9504148960113523,22.638138427734376
1765999828480270300,28.299270263671875,0.0888808220624923,-0.5361102223396301,2.069228172302246,22.65691748046875
1765999828499049500,28.318049560546875,-0.5937605500221252,0.604374349117279,2.320751667022705,22.675696777343752
1765999828517828400,28.336828369140623,-1.0725258588790894,1.959730625152588,2.421086311340332,22.694475585937496
1765999828536607500,28.355607421875,-1.3002257347106934,2.936808824539185,2.2340087890625,22.713254638671877
1765999828555386600,28.37438671875,-1.2948806285858154,3.362581491470337,1.804112792015076,22.732033935546873
1765999828574165800,28.393165771484377,-1.228296399116516,2.6576435565948486,1.536553978919983,22.750812988281254
1765999828602334500,28.42133447265625,-1.5442661046981812,1.022663950920105,1.0987166166305542,22.778981689453126
1765999828621113300,28.44011328125,-1.5722131729125977,0.034132070839405,0.6314051151275635,22.797760498046877
1765999828639892500,28.458892578125,-1.6969823837280271,-0.6025417447090149,0.119958572089672,22.816539794921873
1765999828668061200,28.487061279296874,-1.896429657936096,-0.8907172083854675,-0.8789580464363098,22.84470849609375
1765999828686840300,28.50584033203125,-1.823125958442688,-0.3581958413124084,-1.6773582696914673,22.863487548828125
1765999828705619500,28.524619384765625,-1.5457932949066162,0.3435350656509399,-2.395582675933838,22.8822666015625
1765999828724398300,28.5433984375,-1.1736239194869995,0.6575195789337158,-2.993466377258301,22.901045654296873
1765999828752567000,28.571567138671877,-0.6501128673553467,0.1790597438812255,-2.7854671478271484,22.92921435546875
1765999828771346200,28.59034619140625,0.324063777923584,-1.304730772972107,-2.5255441665649414,22.947993408203125
1765999828790125300,28.609125244140625,1.1948515176773071,-1.6602541208267212,-2.4223079681396484,22.9667724609375
1765999828808904200,28.627904296875,0.6847794055938721,0.1786015927791595,-2.700251340866089,22.985551513671872
1765999828827683300,28.646683349609376,0.5578722357749939,1.7836488485336304,-2.6623778343200684,23.004330566406253
1765999828846462500,28.66546240234375,0.1704312711954116,2.5405101776123047,-1.2164608240127563,23.023109619140627
1765999828865241600,28.68424169921875,0.2580903768539428,4.26177453994751,-0.6946296095848083,23.041888916015623
1765999828884020700,28.70302075195313,0.6821832656860352,5.198230266571045,-0.6123155951499939,23.060667968750003
1765999828902800000,28.7217998046875,0.7739656567573547,4.157774925231934,-0.5591703653335571,23.079447021484377
1765999828921578800,28.740578857421877,-0.8115338683128357,3.8810529708862314,-1.0538181066513062,23.09822607421875
1765999828940358000,28.75935791015625,-0.4842630624771118,3.318599224090576,-0.3459785282611847,23.117005126953124
1765999828959137000,28.778136962890624,0.3039052188396454,3.033630847930908,0.4531853199005127,23.135784179687498
1765999828977916200,28.796916259765624,0.1806632578372955,2.318002700805664,0.6538543701171875,23.1545634765625
1765999828996695300,28.8156953125,0.4560105502605438,1.20103657245636,0.5454258918762207,23.173342529296875
1765999829015474200,28.83447412109375,0.4315759539604187,0.0617737025022506,0.3798815310001373,23.192121337890626
1765999829034253300,28.85325341796875,0.4566214084625244,-0.6483566164970398,0.044058620929718,23.21090063476563
1765999829053032400,28.872032470703125,0.5626064538955688,-1.205465316772461,-0.1924987584352493,23.229679687500003
1765999829071811600,28.8908115234375,0.5885682106018066,-1.425071120262146,-0.2409097999334335,23.248458740234376
1765999829090590700,28.9095908203125,0.4903717041015625,-1.138880968093872,-0.1787542998790741,23.267238037109372
1765999829109369900,28.92836987304688,0.34193155169487,-0.6504946351051331,-0.1669951528310775,23.286017089843753
1765999829128148700,28.947148681640623,0.2770271897315979,-0.2868773639202118,-0.2196822464466095,23.304795898437497
1765999829156317400,28.9753173828125,0.3565923273563385,-0.3252091407775879,-0.197232961654663,23.332964599609376
1765999829175096600,28.9940966796875,0.3208567202091217,-0.5408443808555603,-0.2109774202108383,23.35174389648438
1765999829193875700,29.012875732421875,0.2480110973119735,-0.6420952677726746,-0.2624427676200866,23.370522949218753
1765999829212654800,29.03165478515625,0.2079994529485702,-0.7242565751075745,-0.3522399067878723,23.389302001953126
