time,seconds_elapsed,z,y,x,t
1765999818029714200,17.848714111328125,-0.2354883700609207,-0.0692567974328994,-0.4756345748901367,12.206361328125
1765999818048493300,17.867493408203124,-0.2196058928966522,0.1103374511003494,-0.5145772099494934,12.225140625
1765999818067272200,17.886272216796876,-0.3585776388645172,0.1724929362535476,-0.5078576803207397,12.243919433593751
1765999818086051300,17.90505126953125,-0.4004218578338623,0.2746600806713104,-0.4910589158535003,12.262698486328125
1765999818104830500,17.92383056640625,-0.328492522239685,0.4574613571166992,-0.4666243195533752,12.281477783203124
1765999818123609300,17.942609375,-0.2866483032703399,0.5545888543128967,-0.4156171381473541,12.300256591796876
1765999818142388500,17.961388427734374,-0.2252563834190368,0.4502837061882019,-0.335288405418396,12.31903564453125
1765999818161167600,17.980167724609377,-0.1495091617107391,0.3862956166267395,-0.2384663373231887,12.337814941406252
1765999818179946800,17.99894677734375,-0.104305163025856,0.3261254429817199,-0.0990364551544189,12.356593994140626
1765999818198725600,18.0177255859375,-0.1061377525329589,0.1651625633239746,0.0332157723605632,12.375372802734377
1765999818217504800,18.0365048828125,-0.1052214577794075,-0.0523052960634231,0.1304959952831268,12.394152099609377
1765999818245673500,18.064673583984376,-0.1059850379824638,-0.2294560819864273,0.2001345753669738,12.422320800781252
1765999818264452400,18.083452392578124,-0.1475238502025604,-0.1530979871749878,0.1999818533658981,12.441099609375
1765999818283231500,18.1022314453125,-0.2276998460292816,0.0055741411633789,0.203799769282341,12.459878662109377
1765999818302010600,18.1210107421875,-0.2848156988620758,0.067576915025711,0.2393826395273208,12.478657958984376
1765999818330179000,18.149178955078124,-0.2620609998703003,-0.0040469793602824,0.3723984360694885,12.506826171875
1765999818348958200,18.167958251953124,-0.2012799382209777,-0.0880408883094787,0.5464949011802673,12.52560546875
1765999818367737300,18.1867373046875,-0.1160643100738525,-0.0231365039944648,0.8195514678955078,12.544384521484377
1765999818386516500,18.2055166015625,0.0441349819302558,0.0234419368207454,1.1912627220153809,12.563163818359376
1765999818405295600,18.224295654296878,0.3631591200828552,0.0474183782935142,1.646815061569214,12.581942871093753
1765999818424074500,18.243074462890625,0.6591231226921082,-0.4686096310615539,2.004476308822632,12.600721679687501
1765999818442853600,18.261853515625,1.1559088230133057,-0.8365029692649841,1.878027439117432,12.619500732421875
1765999818461632800,18.2806328125,2.311054229736328,-1.6446770429611206,1.2831978797912598,12.638280029296874
1765999818480411600,18.29941162109375,1.733481526374817,-1.2405900061130524,0.2685514390468597,12.657058837890625
1765999818499190800,18.318190673828123,2.311054229736328,-1.6446770429611206,-0.8131373524665833,12.675837890624999
1765999818517970000,18.336969970703127,-0.14851650595664975,-0.0138208158314228,-1.326111078262329,12.694617187500002
1765999818536749000,18.3557490234375,1.5456405878067017,1.2665517330169678,-1.5040254592895508,12.713396240234376
1765999818555528000,18.37452783203125,1.8674899935722353,1.456454336643219,-0.5614610910415649,12.732175048828127
1765999818574307000,18.39330712890625,1.5456405878067017,1.2665517330169678,-1.933310627937317,12.750954345703127
1765999818593086200,18.412086181640625,2.189339399337769,1.6463569402694702,-1.7865504026412964,12.7697333984375
1765999818611865300,18.430865234375,2.04028844833374,1.4018583297729492,-1.4931825399398804,12.788512451171874
1765999818630644200,18.449644287109376,-0.1916588246822357,-0.6688205599784851,-0.7512873411178589,12.807291503906251
1765999818649423400,18.46842333984375,-1.292131781578064,-0.9757801294326782,0.2051742076873779,12.826070556640625
1765999818677592000,18.496592041015624,-2.193004608154297,2.601749420166016,0.2384663373231887,12.8542392578125
1765999818696371000,18.515370849609376,-2.3744313716888428,0.8129846453666689,0.3001636862754822,12.873018066406251
1765999818715150000,18.53415014648437,-2.600604057312012,2.601749420166016,0.4652498960494995,12.891797363281247
1765999818733929200,18.55292919921875,-2.4875177145004272,-0.0138208158314228,0.5929206013679504,12.910576416015624
1765999818752708000,18.5717080078125,-2.600604057312012,-0.0138208158314228,0.6298779249191284,12.929355224609376
1765999818771487200,18.5904873046875,-0.14851650595664975,-0.0138208158314228,0.5935314893722534,12.948134521484375
1765999818790266400,18.609266357421877,-0.14851650595664975,-0.0138208158314228,0.5180897116661072,12.966913574218752
1765999818809045500,18.62804541015625,-2.447277069091797,-0.0138208158314228,0.422947496175766,12.985692626953126
1765999818827824400,18.646824462890624,-1.5443425476551056,-0.0138208158314228,0.2432005405426025,13.0044716796875
1765999818846603500,18.665603515625,-2.447277069091797,-0.0138208158314228,0.0332157723605632,13.023250732421877
1765999818865382700,18.68438256835937,-0.6414080262184143,0.6375137567520142,0.543440580368042,13.042029785156247
1765999818884161800,18.70316186523437,1.5234967470169067,0.19776747375726703,0.1052978187799453,13.060809082031247
1765999818902941000,18.72194091796875,1.355356216430664,0.6375137567520142,-0.5003746151924133,13.079588134765627
1765999818921719800,18.7407197265625,0.2675587832927704,-0.2419788092374801,-0.0878881737589836,13.098366943359375
1765999818940499000,18.7594990234375,0.2667951881885528,-0.6721803545951843,0.3285689055919647,13.117146240234375
1765999818959278000,18.77827807617188,0.2895499169826507,-0.422947496175766,0.4232529401779175,13.135925292968755
1765999818978057000,18.797056884765624,0.605519711971283,0.2021198868751526,0.1682168841361999,13.1547041015625
1765999818996836000,18.815836181640623,0.7510582208633423,0.2412152290344238,0.0437531881034374,13.173483398437499
1765999819015615200,18.834615234375,0.5842921733856201,0.076129026710987,0.0133626665920019,13.192262451171876
1765999819034394400,18.85339428710937,0.3837758004665375,-0.0293978676199913,0.0011453714687377,13.211041503906246
1765999819053173200,18.87217333984375,0.2067777216434478,0.1637881249189376,-0.0403934344649314,13.229820556640627
1765999819071952400,18.890952392578125,0.0491746142506599,0.5776489973068237,-0.0939968153834343,13.248599609375
1765999819090731500,18.9097314453125,-0.0187840927392244,0.95470529794693,-0.1211803033947944,13.267378662109374
1765999819109510700,18.9285107421875,-0.0432186834514141,1.1440733671188354,-0.1337030231952667,13.286157958984374
1765999819128289500,18.94728955078125,-0.0587957352399826,1.1376593112945557,-0.1489746421575546,13.304936767578125
1765999819147068700,18.966068603515627,-0.0436768308281898,0.8937715291976929,-0.1671478748321533,13.323715820312502
1765999819165847800,18.984847900390623,-0.0044287694618105,0.5116755962371826,-0.1773798614740371,13.342495117187498
1765999819184627000,19.003626953125,0.0297796577215194,0.1877645552158355,-0.1928042024374008,13.361274169921876
1765999819203405800,19.02240576171875,0.0523816533386707,-0.0333684869110584,-0.2007454335689544,13.380052978515627
1765999819222185000,19.04118505859375,0.0679587051272392,-0.0999527499079704,-0.2137263119220733,13.398832275390626
1765999819240964000,19.059964111328124,0.0842993408441543,-0.0138208158314228,-0.1984546929597854,13.417611328125
1765999819259743000,19.07874291992188,0.0957530513405799,0.025427246466279,-0.1282052397727966,13.436390136718755
1765999819278522000,19.097522216796875,0.1143844276666641,0.0006872228696011,-0.0295505840331316,13.45516943359375
1765999819297301200,19.11630126953125,0.1290451884269714,-0.0416151620447635,0.0800996422767639,13.473948486328124
1765999819316080400,19.135080322265622,0.1308777779340744,-0.0437531881034374,0.1802814751863479,13.492727539062498
1765999819334859500,19.153859619140626,0.1148425787687301,0.0432950407266616,0.2520580887794494,13.511506835937501
1765999819353638400,19.172638427734373,0.1006399691104888,0.1503490954637527,0.2838230431079864,13.530285644531249
1765999819372417500,19.19141748046875,0.0876590982079505,0.2163224965333938,0.2913061380386352,13.549064697265626
1765999819391196700,19.21019677734375,0.048105601221323,0.2419788092374801,0.279852420091629,13.567843994140626
1765999819409975600,19.2289755859375,0.0103847011923789,0.2236528694629669,0.2454912811517715,13.586622802734377
1765999819428754700,19.247754638671875,-0.009621120058,0.2468657344579696,0.1955530941486358,13.60540185546875
1765999819447533800,19.266533935546875,-0.0343611426651477,0.2354120165109634,0.1494327932596206,13.62418115234375
1765999819466313000,19.28531298828125,-0.0719293281435966,0.1598175019025802,0.0935386717319488,13.642960205078127
1765999819485091800,19.304091796875,-0.0910188555717468,0.0633008629083633,0.032604906708002,13.661739013671875
1765999819503871000,19.32287109375,-0.1308777779340744,0.0135153830051422,-0.0220674909651279,13.680518310546875
1765999819522650000,19.341650146484376,-0.1785252392292022,-0.0087811816483736,-0.0687986463308334,13.699297363281252
1765999819541429200,19.36042919921875,-0.1950185745954513,-0.0197767466306686,-0.1081994250416755,13.718076416015625
1765999819560208100,19.3792080078125,-0.2095266133546829,-0.011224640533328,-0.1100320219993591,13.736855224609377
1765999819578987300,19.3979873046875,-0.2330449074506759,-0.0069485870189964,-0.0897207632660865,13.755634521484376
1765999819597766400,19.416766357421874,-0.2464839369058609,-0.0293978676199913,-0.0611628368496894,13.77441357421875
1765999819616545500,19.435545654296877,-0.2596175372600555,-0.032604906708002,-0.0362700968980789,13.793192871093753
1765999819635324700,19.45432470703125,-0.2696968019008636,-0.0330630578100681,-0.0121409371495246,13.811971923828127
1765999819654103600,19.473103515625,-0.281914085149765,-0.0410043001174926,0.0129045182839035,13.830750732421874
1765999819672882700,19.491882568359376,-0.2895499169826507,-0.0500145554542541,0.040240716189146,13.849529785156252
1765999819691661800,19.510661865234376,-0.2973384261131286,-0.0613155514001846,0.0721584036946296,13.868309082031251
1765999819710441000,19.52944091796875,-0.3095557391643524,-0.0935386717319488,0.1007163301110267,13.887088134765625
1765999819729219800,19.5482197265625,-0.3184132575988769,-0.1578321903944015,0.124845489859581,13.905866943359376
1765999819747999000,19.5669990234375,-0.3281871080398559,-0.2149480432271957,0.1550832986831665,13.924646240234376
1765999819766778000,19.585778076171877,-0.3474293351173401,-0.2532798051834106,0.1978438347578048,13.943425292968753
1765999819785557000,19.604556884765625,-0.3714057803153991,-0.2221257090568542,0.2540434002876282,13.9622041015625
1765999819804336000,19.623336181640624,-0.3984365463256836,-0.1622609496116638,0.325972706079483,13.9809833984375
1765999819823115300,19.642115234375,-0.4224129915237427,-0.1369100660085678,0.4056905806064605,13.999762451171877
1765999819841894400,19.66089428710937,-0.4453204274177551,-0.1466839015483856,0.4844921231269836,14.018541503906247
1765999819860673500,19.67967358398437,-0.4718930423259735,-0.1886808574199676,0.5565741658210754,14.037320800781247
1765999819879452400,19.69845239257813,-0.504421591758728,-0.2265544682741165,0.6106356978416443,14.056099609375005
1765999819898231600,19.7172314453125,-0.5338957905769348,-0.2045633494853973,0.6466767191886902,14.074878662109375
1765999819917010700,19.7360107421875,-0.5632173418998718,-0.1225547492504119,0.6938660144805908,14.093657958984375
1765999819935789800,19.75478979492188,-0.581848680973053,-0.0523052960634231,0.7401390671730042,14.112437011718756
1765999819963958300,19.78295825195313,-0.5720748901367188,-0.1059086844325065,0.8545234799385071,14.140605468750005
1765999819982737400,19.8017373046875,-0.5264127254486084,-0.261526495218277,0.9334777593612672,14.159384521484375
1765999820001516500,19.8205166015625,-0.4592176079750061,-0.4858665764331817,0.9563851952552797,14.178163818359375
1765999820020295400,19.83929541015625,-0.3805687427520752,-0.7273108959197998,0.9295071363449096,14.196942626953126
1765999820039074600,19.858074462890624,-0.3575085997581482,-0.9518036842346193,0.8671988844871521,14.2157216796875
1765999820057853700,19.876853759765623,-0.3833176493644714,-1.1721731424331665,0.6973785161972046,14.234500976562499
