time,seconds_elapsed,z,y,x,t
1765999806809249000,6.6282490234375,-2.21005654335022,2.411802291870117,6.84727668762207,1.0328435058593755
1765999806828028000,6.64702783203125,-4.562334060668945,1.8384008407592771,6.757438659667969,1.051622314453125
1765999806856196400,6.6751962890625,-4.924977779388428,0.9072256088256836,5.880021095275879,1.079790771484375
1765999806874975200,6.693975341796875,-0.365128755569458,-2.5977659225463867,6.526403427124023,1.0985698242187505
1765999806893754400,6.71275439453125,-13.32489013671875,-4.039576530456543,1.2317842245101929,1.117348876953125
1765999806912533200,6.731533203125,-0.9487762451171876,4.512395858764648,-2.292231559753418,1.1361276855468754
1765999806931312400,6.7503125,0.919408082962036,2.607100486755371,7.642576217651367,1.154906982421875
1765999806950091300,6.76909130859375,3.162238597869873,0.2322654724121093,-2.878595352172852,1.1736857910156253
1765999806968870100,6.7878701171875,2.574200391769409,-0.4724512100219726,-6.210732460021973,1.1924645996093757
1765999806987649300,6.806649169921875,2.9527041912078857,-6.702967643737793,-3.858897209167481,1.2112436523437502
1765999807006428200,6.82542822265625,2.0570759773254395,-7.071352005004883,-0.1218020915985107,1.2300227050781256
1765999807025207000,6.84420703125,-1.0973480939865112,-4.824909210205078,-0.2360639572143554,1.248801513671875
1765999807043986200,6.862986083984375,-2.686532020568848,-3.311534881591797,-1.6168081760406494,1.2675805664062505
1765999807062765000,6.88176513671875,-3.363095283508301,-3.023981094360352,-2.2657275199890137,1.286359619140625
1765999807090933500,6.90993359375,-4.251008033752441,-4.6855573654174805,0.3514782190322876,1.3145280761718752
1765999807109712600,6.928712646484375,-5.136760711669922,-4.683396339416504,1.418224573135376,1.3333071289062506
1765999807128491500,6.947491455078125,-4.594359397888184,-3.71646785736084,1.4903595447540283,1.3520859375
1765999807147270400,6.9662705078125,-4.70804500579834,-2.7032599449157715,0.8128932118415833,1.3708649902343755
1765999807166049500,6.985049560546875,-4.433093070983887,-2.250901699066162,-0.0646922588348388,1.38964404296875
1765999807184828400,7.003828369140625,-3.9348342418670654,-2.0744404792785645,-0.8112363815307617,1.4084228515625004
1765999807203607300,7.022607177734375,-2.9150595664978027,-2.073531150817871,-0.8453113436698914,1.4272016601562498
1765999807222386400,7.041386474609375,-2.605111598968506,-2.1222715377807617,-0.0369200110435485,1.4459809570312503
1765999807241165300,7.060165283203125,-2.873885154724121,-1.9692516326904297,0.749556303024292,1.4647597656250007
1765999807259944200,7.078944091796875,-2.6494340896606445,-1.2135820388793943,1.2160413265228271,1.4835385742187501
1765999807278723300,7.097723388671875,-3.397528171539306,-0.5401449203491211,2.0265374183654785,1.5023178710937506
1765999807297502200,7.116502197265625,-6.845839977264404,0.037057876586914,1.6467772722244265,1.5210966796875
1765999807316281300,7.13528125,-5.769236564636231,3.353706359863281,1.0248085260391235,1.5398757324218755
1765999807335060200,7.154060302734375,0.3238329887390136,3.2255077362060547,-0.2139998227357864,1.55865478515625
1765999807353839000,7.172839111328125,1.4934422969818115,4.334250450134277,-6.714718818664551,1.5774335937500004
1765999807372618200,7.1916181640625,3.543133020401001,8.664911270141602,-8.0490083694458,1.5962126464843749
1765999807391397000,7.210397216796875,7.972157478332519,7.109009742736816,-8.285781860351562,1.6149916992187503
1765999807410176000,7.229176025390625,8.577529907226562,6.116182327270508,-5.521950721740723,1.6337705078125007
1765999807428955100,7.247955078125,8.195958137512207,4.836753845214844,-1.6942634582519531,1.6525495605468752
1765999807447734000,7.266734130859375,5.904841423034668,-0.0787553787231445,0.6387404799461365,1.6713286132812506
1765999807466513200,7.28551318359375,2.8324193954467773,-3.0880722999572754,-0.5155765414237976,1.6901076660156251
1765999807485292000,7.3042919921875,0.346177339553833,-2.904891014099121,0.2392811328172683,1.7088864746093755
1765999807504071200,7.3230712890625,-0.3639795780181885,-0.4599771499633789,1.3898394107818604,1.727665771484375
1765999807522850000,7.34185009765625,-0.05318284034729,1.2782840728759766,2.222698211669922,1.7464445800781254
1765999807541629000,7.36062890625,0.3454866409301758,1.2515640258789062,2.414754867553711,1.765223388671875
1765999807560408000,7.379407958984375,0.4830491542816162,0.0397939682006835,1.5045610666275024,1.7840024414062503
1765999807579187000,7.39818701171875,0.902611255645752,-0.4234437942504883,0.445840448141098,1.8027814941406248
1765999807597966000,7.416966064453125,1.242404222488403,0.1393232345581054,0.1750757098197937,1.8215605468750002
1765999807616745000,7.435744873046875,1.3469988107681274,0.2027168273925781,0.0549418330192565,1.8403393554687506
1765999807635523800,7.45452392578125,1.1305686235427856,-0.2635707855224609,0.4266025424003601,1.8591184082031251
1765999807654303000,7.473302978515625,0.0217278003692626,-0.3284931182861328,1.286115646362305,1.8778974609375005
1765999807673081900,7.492081787109375,-1.2357842922210691,-0.2338581085205078,1.8465588092803955,1.89667626953125
1765999807691861000,7.510861083984375,-1.6669411659240725,-0.3248891830444336,1.5545254945755005,1.9154555664062505
1765999807710639900,7.529639892578125,-1.1980774402618408,-0.3545389175415039,1.6019442081451416,1.934234375
1765999807729418800,7.548418701171875,-0.3148679733276367,-0.3421907424926758,1.6421926021575928,1.9530131835937503
1765999807748198000,7.567197998046875,-0.115840196609497,-0.1043996810913086,1.11545991897583,1.9717924804687499
1765999807766976800,7.585976806640625,0.0445978641510009,0.0650005340576171,0.1361641585826873,1.9905712890625002
1765999807785756000,7.604755859375,0.7422866821289062,0.1990480422973632,-0.4311719536781311,2.0093503417968757
1765999807813924400,7.63292431640625,2.0615484714508057,0.2548141479492187,-0.1705450415611267,2.037518798828125
1765999807832703200,7.651703125,2.6909661293029785,-0.0597419738769531,-0.7022984027862549,2.0562976074218753
1765999807851482400,7.670482421875,3.25732684135437,-0.0850458145141601,-1.7904406785964966,2.075076904296875
1765999807870261200,7.68926123046875,3.875851392745972,0.2648591995239258,-2.503796100616455,2.093855712890625
1765999807889040100,7.7080400390625,4.813808441162109,0.4426097869873047,-2.510319232940674,2.1126345214843756
1765999807907819300,7.7268193359375,5.548473358154297,1.4297103881835938,-2.558233499526977,2.131413818359375
1765999807926598100,7.74559814453125,6.731446266174316,2.471345901489258,-4.680671215057373,2.1501926269531255
1765999807945377300,7.764377197265625,6.0794677734375,1.8986015319824217,-7.096856117248535,2.1689716796875
1765999807964156200,7.78315625,3.298464775085449,1.934345245361328,-7.821255207061768,2.1877507324218755
1765999807982935300,7.801935302734375,0.5869431495666504,3.503401756286621,-5.423829078674316,2.20652978515625
1765999808001714200,7.820714111328125,-2.2085251808166504,5.636776924133301,-1.904917597770691,2.2253085937500003
1765999808020493000,7.8394931640625,-3.4644055366516118,5.225696563720703,1.6104025840759275,2.244087646484375
1765999808039272200,7.858272216796875,-3.503384590148926,2.996523857116699,3.417945384979248,2.2628666992187503
1765999808058051000,7.877051025390625,-3.4727673530578613,1.0541400909423828,3.1698029041290283,2.2816455078125006
1765999808076830000,7.895829833984375,-1.815345287322998,0.4934167861938476,1.5005552768707275,2.30042431640625
1765999808095609000,7.914609130859375,-1.4394612312316897,0.5024929046630859,3.20337712764e-05,2.3192036132812506
1765999808114388000,7.933387939453125,-0.2425155639648437,0.0430364608764648,-0.9531800746917723,2.337982421875
1765999808133167000,7.9521669921875,-1.022583246231079,-0.170720100402832,-0.4097359776496887,2.3567614746093755
1765999808151946000,7.970946044921875,-2.1482908725738525,0.6002349853515625,0.4864414930343628,2.37554052734375
1765999808170724900,7.989724853515625,-2.491060256958008,0.7550945281982422,1.6721177101135254,2.3943193359375003
1765999808189504000,8.00850390625,-1.510550618171692,-0.1332645416259765,3.3720359802246094,2.4130983886718758
1765999808208283000,8.027282958984374,-1.343114733695984,-0.4119062423706054,3.841001272201538,2.4318774414062494
1765999808227062000,8.04606201171875,-12.609085083007812,-2.94850492477417,-0.2821906208992004,2.450656494140625
1765999808245841000,8.0648408203125,-1.0388367176055908,-3.457624912261963,-10.719640731811523,2.469435302734376
1765999808264619800,8.083619873046874,-3.13458251953125,1.1812019348144531,-5.6500444412231445,2.4882143554687497
1765999808283399000,8.10239892578125,-2.293910503387451,-4.0922956466674805,4.82341194152832,2.506993408203125
1765999808302177800,8.121177734375,-2.0325989723205566,-3.4225053787231445,8.962127685546875,2.5257722167968746
1765999808320957000,8.13995703125,-2.6746838092803955,-0.044097900390625,5.58864164352417,2.544551513671876
1765999808339735800,8.15873583984375,-2.8573286533355717,-1.362013816833496,0.007839560508728,2.5633303222656254
1765999808358514700,8.1775146484375,-2.5680651664733887,-2.5935616493225098,-5.242491722106934,2.582109130859375
1765999808377293800,8.1962939453125,-1.9807418584823608,-3.573737621307373,-5.318512916564941,2.6008884277343745
1765999808396072700,8.21507275390625,-3.040118455886841,-3.251239776611328,-1.25429368019104,2.6196672363281257
1765999808414851800,8.233851806640626,-3.5298094749450684,-2.945051670074463,2.117330551147461,2.638446289062501
1765999808433630700,8.252630615234375,-3.747780561447144,-2.8189072608947754,2.0593066215515137,2.6572250976562506
1765999808452409600,8.27140966796875,-3.275451183319092,-2.820377826690674,0.6725035905838013,2.676004150390626
1765999808471188700,8.290188720703124,-2.983549833297729,-3.045368194580078,-0.8592281937599182,2.6947832031249996
1765999808489967600,8.308967529296876,-2.7809290885925293,-2.952723503112793,-1.8072943687438965,2.713562011718751
1765999808508746800,8.327746826171875,-2.7114462852478027,-2.583148002624512,-1.854699730873108,2.7323413085937505
1765999808527525600,8.346525634765625,-2.7798123359680176,-2.265535831451416,-1.0372636318206787,2.7511201171875
1765999808555694000,8.374694091796876,-2.835766553878784,-2.061710357666016,-0.5213490128517151,2.779288574218751
1765999808574473200,8.39347314453125,-2.360729932785034,-1.877293586730957,-0.7991304397583008,2.7980676269531246
1765999808593252000,8.412252197265625,-2.077562093734741,-1.5075292587280271,-0.9178563356399536,2.8168466796875
1765999808612031000,8.431031005859374,-2.0299997329711914,-1.2104997634887695,-0.5858820080757141,2.8356254882812495
1765999808630810000,8.44981005859375,-2.1136155128479004,-0.9987306594848632,-0.3067561984062195,2.854404541015625
1765999808649589000,8.468589111328125,-1.8736810684204104,-0.7698941230773926,-0.1473740637302398,2.8731835937500003
1765999808668368000,8.487367919921875,-1.857165813446045,-0.9215755462646484,0.0855946689844131,2.89196240234375
1765999808687147000,8.50614697265625,-2.114242553710937,-0.5719947814941406,0.2951481640338897,2.910741455078125
1765999808705926000,8.52492578125,-1.6610689163208008,0.3215236663818359,0.3151484131813049,2.9295202636718747
1765999808734094300,8.55309423828125,-1.090167999267578,0.8076086044311523,1.2427427768707275,2.9576887207031257
1765999808752873500,8.57187353515625,-0.8842730522155762,0.445779800415039,1.7191975116729736,2.9764680175781253
1765999808771652400,8.59065234375,-1.2492804527282717,0.4100370407104492,1.6615546941757202,2.9952468261718748
1765999808790431500,8.609431396484375,-1.399770736694336,3.83271598815918,3.0949177742004395,3.01402587890625
1765999808809210400,8.62821044921875,2.1048388481140137,5.022579193115234,3.590245485305786,3.0328049316406256
1765999808827989500,8.646989501953126,1.9801697731018064,3.242276191711426,-0.6150938272476196,3.051583984375001
1765999808846768400,8.665768310546875,1.7893667221069336,4.815728187561035,-6.534524440765381,3.0703627929687505
