time,seconds_elapsed,z,y,x,t
1765999825090646000,24.90964599609375,-0.2880227565765381,1.2028690576553345,2.1535274982452397,19.26729321289063
1765999825109425200,24.928425048828124,-0.2510654330253601,1.1481966972351074,2.069228172302246,19.286072265625002
1765999825128204300,24.947204345703124,-0.2351829409599304,1.110781192779541,1.9542328119277956,19.304851562499998
1765999825146983400,24.9659833984375,-0.2417497336864471,1.0116684436798096,1.8002948760986328,19.32363061523438
1765999825165762300,24.98476220703125,-0.2617555558681488,0.921871304512024,1.5758020877838137,19.342409423828123
1765999825184541400,25.00354150390625,-0.287106454372406,0.7004328370094299,1.2954151630401611,19.361188720703126
1765999825203320600,25.022320556640626,-0.3394880890846252,0.4282925724983215,0.9992983937263488,19.3799677734375
1765999825222099700,25.041099609375,-0.3813323378562927,0.1205694377422332,0.6836340427398682,19.398746826171873
1765999825240878800,25.05987890625,-0.4022544622421264,-0.1886808574199676,0.3511708974838257,19.417526123046876
1765999825259657700,25.07865771484375,-0.3854556679725647,-0.4704422354698181,-0.0174860041588544,19.436304931640628
1765999825278436900,25.097436767578124,-0.4202749729156494,-0.6763036847114563,-0.396222174167633,19.455083984375
1765999825297216000,25.116216064453123,-0.5088503360748291,-0.8328377604484558,-0.734183132648468,19.473863281249997
1765999825315995100,25.1349951171875,-0.5942187309265137,-0.936684787273407,-1.0206786394119265,19.492642333984378
1765999825334774000,25.15377392578125,-0.7116574645042419,-0.2201403975486755,-1.5386919975280762,19.511421142578122
1765999825353553200,25.17255322265625,-0.7881683111190796,0.129885122179985,-1.795255184173584,19.530200439453125
1765999825372332300,25.191332275390625,-0.6963858604431152,0.0038942629471421,-1.5974878072738647,19.5489794921875
1765999825391111400,25.210111328125,-0.4532616734504699,-0.3363574147224426,-1.6868267059326172,19.567758544921872
1765999825409890600,25.228890625,-0.2800815105438232,-0.7296016216278076,-1.6402482986450195,19.586537841796876
1765999825428669400,25.24766943359375,-0.1157588735222816,-1.117653489112854,-1.508759617805481,19.605316650390627
1765999825447448600,25.266448486328127,-0.1102610900998115,-1.299538493156433,-1.334663152694702,19.624095703125
1765999825466227700,25.285227783203126,-0.0957530513405799,-0.9200387001037598,-1.1029927730560305,19.642875000000004
1765999825485006800,25.3040068359375,-0.0972802191972732,-0.5344303250312805,-0.9067524075508118,19.661654052734377
1765999825503786000,25.322785888671877,-0.0348192937672138,-0.2204458266496658,-0.7934370040893555,19.68043310546875
1765999825522564900,25.34156494140625,0.0212275516241788,-0.0555123351514339,-0.5174788236618042,19.699212158203125
1765999825541344000,25.360343994140624,0.0542142502963542,-0.0176387205719947,-0.3026071488857269,19.717991210937498
1765999825560123100,25.379123046875,0.1579085439443588,0.0277179889380931,-0.0978147238492965,19.73677026367188
1765999825578902300,25.39790234375,0.2724456787109375,-0.1382845193147659,0.1572213172912597,19.755549560546875
1765999825597681200,25.41668115234375,0.402407169342041,-0.3525453209877014,0.400345504283905,19.774328369140626
1765999825616460300,25.43546020507813,0.5510000586509705,-0.5587121844291687,0.627434492111206,19.793107421875007
1765999825635239400,25.45423950195313,0.7351757884025574,-0.6556869745254517,0.8525381684303284,19.811886718750003
1765999825654018600,25.4730185546875,0.8863648176193237,-0.6112465858459473,1.0933716297149658,19.830665771484377
1765999825672797700,25.49179760742188,0.9917389750480652,-0.4939605295658111,1.3459641933441162,19.849444824218757
1765999825691576800,25.51057690429688,0.9954041838645936,-0.5432878732681274,1.5367066860198977,19.868224121093753
1765999825710355700,25.529355712890624,0.8845322132110596,-0.8641445636749268,1.542509913444519,19.887002929687497
1765999825729134800,25.548134765625,0.6366738080978394,-1.2239439487457275,1.3810888528823853,19.90578198242188
1765999825747914000,25.5669140625,0.2907716333866119,-1.362457513809204,1.1414772272109983,19.924561279296874
1765999825766693000,25.58569311523437,0.1061377525329589,-1.2208895683288574,0.5695550441741943,19.943340332031248
1765999825785472000,25.604471923828125,-0.1363755613565445,-1.0680207014083862,-0.0874300226569175,19.962119140625
1765999825804251100,25.623251220703125,-0.6765327453613281,-1.123304009437561,-0.8259655237197876,19.980898437500002
1765999825823030300,25.6420302734375,-1.30923593044281,-1.5243366956710815,-1.5926008224487305,19.999677490234376
1765999825841809400,25.66080932617188,-1.8764238357543943,-1.9510257244110107,-2.1880412101745605,20.018456542968757
1765999825860588300,25.67958837890625,-2.014479398727417,-1.8626030683517456,-2.650160551071167,20.037235595703123
1765999825879367400,25.698367431640627,-1.881616234779358,-1.2864048480987549,-3.1825292110443115,20.056014648437504
1765999825898146600,25.717146484375,-1.4060579538345337,-0.5069414377212524,-3.643884658813477,20.074793701171878
1765999825916925700,25.73592578125,-1.103679895401001,-0.4246273934841156,-1.9965351819992063,20.093572998046874
1765999825935704800,25.754704833984373,-0.9929606914520264,2.2686753273010254,-2.6379432678222656,20.112352050781247
1765999825954483700,25.773483642578125,0.1175914704799652,2.726365804672241,-2.53256893157959,20.131130859375
1765999825973262800,25.792262939453124,0.4456258714199066,2.3896267414093018,-2.0116541385650635,20.14991015625
1765999825992042000,25.8110419921875,0.065057098865509,1.9524002075195312,-1.6098577976226809,20.168689208984375
1765999826020210700,25.839210693359377,0.1669187992811203,1.5125775337219238,-0.8328377604484558,20.196857910156254
1765999826038989600,25.857989501953124,0.2302960157394409,2.3331217765808105,-0.4330267608165741,20.215636718749998
1765999826057768700,25.876768798828124,0.328645259141922,2.7069709300994877,-0.1497382223606109,20.234416015625
1765999826076547800,25.8955478515625,0.6429351568222046,2.4568216800689697,0.0793360620737075,20.253195068359375
1765999826095327000,25.914326904296875,0.8910989761352539,1.7871612310409546,0.3099375069141388,20.27197412109375
1765999826114105900,25.93310595703125,0.9066760540008544,1.184237718582153,0.4950295388698578,20.290753173828122
1765999826132885000,25.951885009765626,0.8494074940681458,0.8985057473182678,0.6477457284927368,20.309532226562503
1765999826151664000,25.9706640625,0.8862120509147644,0.9954805374145508,0.7583122849464417,20.328311279296877
1765999826170443300,25.989443359375,1.0143409967422483,1.119180679321289,0.8533017635345459,20.347090576171873
1765999826189222100,26.00822216796875,1.1337649822235107,1.1031454801559448,0.9188169836997986,20.365869384765624
1765999826208001300,26.027001220703124,1.1698060035705566,0.8722385764122009,0.9817360639572144,20.384648437499997
1765999826226780400,26.045780517578127,1.1922553777694702,0.5077049732208252,1.067409873008728,20.403427734375
1765999826245559600,26.0645595703125,1.2370011806488037,0.2239582985639572,1.177670955657959,20.422206787109374
1765999826264338700,26.083338623046878,1.2712095975875854,0.0431423261761665,1.293124437332153,20.440985839843755
1765999826283117600,26.10211767578125,1.320231556892395,-0.011224640533328,1.3968186378479004,20.45976489257813
1765999826301896700,26.120896728515625,1.377500057220459,-0.000992655288428,1.4655410051345823,20.478543945312502
1765999826320675800,26.13967578125,1.3978112936019895,-0.0552069060504436,1.5153264999389648,20.497322998046876
1765999826339455000,26.158455078125,1.37719464302063,-0.1613446623086929,1.5418990850448608,20.51610229492188
1765999826358234000,26.17723413085937,1.3330596685409546,-0.2958876192569732,1.538081169128418,20.534881347656246
1765999826377013000,26.196012939453126,1.293506145477295,-0.4441750645637512,1.503109097480774,20.553660156250004
1765999826395792100,26.21479223632813,1.278234601020813,-0.6340012550354004,1.4380520582199097,20.572439453125007
1765999826414571300,26.2335712890625,1.2715150117874146,-0.877278208732605,1.3195443153381348,20.591218505859374
1765999826433350400,26.252350341796877,1.2310452461242676,-1.1546107530593872,1.1659117937088013,20.609997558593754
1765999826452129300,26.27112939453125,1.1557561159133911,-1.5139520168304443,0.9837213754653932,20.628776611328128
1765999826470908400,26.289908447265624,1.029765248298645,-1.892230033874512,0.7671698331832886,20.6475556640625
1765999826489687600,26.3086875,0.9077450633049012,-2.214766502380371,0.5035816431045532,20.666334716796875
1765999826508466700,26.327466796875,0.7728966474533081,-2.5893795490264893,0.1960112303495407,20.68511401367188
1765999826527245600,26.34624560546875,0.6455313563346863,-2.8442628383636475,-0.107283130288124,20.703892822265622
1765999826546024700,26.36502465820313,0.4967857897281647,-2.9917867183685303,-0.4006509482860565,20.722671875000003
1765999826564803800,26.383803955078125,0.3488037884235382,-3.032561779022217,-0.6617956161499023,20.741451171875
1765999826583583000,26.4025830078125,0.2302960157394409,-2.9229116439819336,-0.9435570240020752,20.760230224609373
1765999826602362000,26.42136206054688,0.0543669648468494,-2.435136079788208,-1.2210423946380615,20.779009277343754
1765999826621141000,26.44014111328125,-0.1304196268320083,-1.7111085653305054,-1.3450478315353394,20.797788330078127
1765999826639920000,26.458920166015623,-0.4214966893196106,-0.1081994250416755,-2.119929790496826,20.8165673828125
1765999826658699300,26.47769921875,-0.6223185062408447,0.9160680770874025,-2.016541004180908,20.835346435546874
1765999826677478400,26.496478515625,-0.5697841048240662,1.091997146606445,-1.7108031511306765,20.854125732421878
1765999826696257300,26.51525732421875,-0.4799869954586029,0.5481747984886169,-1.5269328355789185,20.87290454101563
1765999826715036400,26.534036376953125,-0.5300779342651367,-0.0863610059022903,-1.2546398639678955,20.891683593750003
1765999826733815600,26.552815673828125,-0.281914085149765,-0.3774380683898926,-0.90415620803833,20.910462890625
1765999826752594700,26.5715947265625,-0.0132863093167543,-0.3673588037490845,-0.4576140642166137,20.929241943359372
1765999826771373800,26.59037377929688,0.1122464016079902,-0.2900844216346741,-0.0943022519350051,20.948020996093753
1765999826790153000,26.609153076171875,0.1927278339862823,-0.2728274762630462,0.1213330179452896,20.96680029296875
1765999826808931800,26.627931884765623,0.3796524703502655,-0.25266894698143,0.2864192128181457,20.9855791015625
1765999826827711000,26.6467109375,0.4847212135791778,-0.1081994250416755,0.4712058305740356,21.004358154296874
1765999826846490000,26.665489990234374,0.4833467602729797,-0.0037415467668324,0.6581304669380188,21.023137207031247
1765999826865269200,26.684269287109377,0.4703658819198608,-0.0527634471654892,0.8152754306793213,21.04191650390625
1765999826884048100,26.703048095703124,0.5485565662384033,-0.2096029818058014,0.9722676277160645,21.060695312500002
1765999826902827300,26.7218271484375,0.7159335017204285,-0.2483928948640823,1.173242211341858,21.079474365234375
1765999826921606400,26.7406064453125,0.8455895781517029,-0.0187077336013317,1.46004319190979,21.09825366210938
1765999826940385500,26.759385498046875,0.8688024282455444,0.3737728893756866,1.8074724674224851,21.117032714843752
1765999826959164700,26.77816455078125,0.7715222239494324,0.5248091816902161,2.110614061355591,21.135811767578126
1765999826977943600,26.796943603515626,0.5410735011100769,0.3304014801979065,2.2750895023345947,21.1545908203125
1765999827006112300,26.8251123046875,0.0445931293070316,-0.1361464858055114,2.250502109527588,21.18275952148438
1765999827024891400,26.843891357421874,-0.3753764033317566,-0.0892626196146011,2.094273567199707,21.201538574218752
1765999827043670500,26.86267041015625,-0.6885973215103149,0.0878881737589836,1.876347541809082,21.220317626953126
1765999827062449400,26.881449462890625,-0.8513928055763245,0.492127925157547,1.255708932876587,21.2390966796875
1765999827081228500,26.900228515625,-0.9731075763702391,0.7543416619300842,0.4493674039840698,21.257875732421873
1765999827100007700,26.919007568359376,-1.3765838146209717,0.0799469277262687,-0.3249036967754364,21.276654785156254
