time,seconds_elapsed,z,y,x,t
1765999822001488000,21.82048779296875,2.193164110183716,4.754153251647949,2.435293674468994,16.225082275390623
1765999822020267000,21.83926708984375,2.4421169757843018,5.698026657104492,0.5066779255867004,16.243861572265626
1765999822039046000,21.8580458984375,3.923963308334351,6.733287811279297,-2.854872465133667,16.262640380859374
1765999822057825000,21.87682495117188,4.892954349517822,4.892005920410156,-3.8844051361083984,16.281419433593754
1765999822076604200,21.89560424804688,4.618176937103272,2.6766433715820312,-4.715263366699219,16.300198730468754
1765999822095383300,21.91438330078125,3.532451868057251,1.6876544952392578,-5.647139072418213,16.318977783203124
1765999822114162200,21.933162109375,2.072646141052246,1.4120941162109375,-4.189566135406494,16.337756591796875
1765999822132941300,21.95194140625,1.5350580215454102,0.6976222991943359,-2.4219350814819336,16.356535888671875
1765999822151720400,21.97072045898437,2.206348657608032,-0.529170036315918,-0.1943514943122863,16.375314941406245
1765999822170499600,21.98949951171875,1.1595709323883057,-0.9575510025024414,1.7264751195907593,16.394093994140626
1765999822189278500,22.008278564453125,-0.0216825008392334,-0.6648702621459961,2.5649664402008057,16.412873046875
1765999822208057600,22.0270576171875,-0.4225118160247803,-0.6826705932617188,2.717182159423828,16.431652099609373
1765999822226836700,22.04583666992188,-0.4241905212402344,-0.7734088897705078,1.6247196197509766,16.450431152343754
1765999822245615900,22.064615966796875,-0.5968782901763916,-0.5554475784301758,0.8598117828369141,16.46921044921875
1765999822264394800,22.083394775390627,-0.8332843780517578,-0.1902523040771484,0.6436625719070435,16.4879892578125
1765999822283174000,22.102173828125,-1.2155170440673828,-0.0238323211669921,0.5255155563354492,16.506768310546875
1765999822301953000,22.120953125,-0.9897632598876952,-0.0848636627197265,0.3689505457878113,16.525547607421874
1765999822320732200,22.139732177734373,-0.2414546012878418,-0.8646736145019531,-0.3467794954776764,16.544326660156248
1765999822339511300,22.15851123046875,0.4034910202026367,-1.3442301750183103,-0.4196005463600158,16.563105712890625
1765999822358290200,22.177290283203124,1.3511786460876465,-0.763737678527832,-0.7232661843299866,16.581884765625
1765999822377069300,22.1960693359375,1.9047731161117556,1.216230392456055,-0.8994845151901245,16.600663818359376
1765999822395848400,22.214848388671875,2.3090243339538574,2.021328926086426,-0.9066282510757446,16.61944287109375
1765999822414627600,22.233627685546875,2.555380344390869,1.4499034881591797,-0.708634614944458,16.63822216796875
1765999822433406500,22.252406494140622,3.4217491149902344,0.4508419036865234,-0.5568263530731201,16.657000976562497
1765999822452185600,22.271185546875,4.868771076202393,0.5831470489501953,-0.9749058485031128,16.675780029296874
1765999822470964700,22.28996484375,5.845381736755371,0.5933256149291992,-2.136874198913574,16.694559326171873
1765999822489744000,22.308743896484376,5.908448219299316,0.1903610229492187,-3.37061619758606,16.71333837890625
1765999822508523000,22.32752294921875,6.144190788269043,-0.4258918762207031,-4.193187713623047,16.732117431640624
1765999822527302000,22.346302001953124,5.856111526489258,-0.2732677459716797,-5.040205955505371,16.750896484374998
1765999822546081000,22.3650810546875,6.167006969451904,0.138859748840332,-6.2524518966674805,16.769675537109375
1765999822564860200,22.383860107421874,5.638683319091797,0.909423828125,-6.646278381347656,16.78845458984375
1765999822583639300,22.402639404296878,2.506648302078247,3.222407341003418,-6.270542621612549,16.807233886718752
1765999822602418400,22.42141845703125,-1.4777231216430664,6.195425033569336,-6.284581184387207,16.826012939453125
1765999822621197300,22.440197265625,-3.3577146530151367,6.725704193115234,-5.775742530822754,16.844791748046873
1765999822639976400,22.4589765625,-2.858809471130371,3.3310556411743164,-3.5261683464050293,16.863571044921873
1765999822658755600,22.477755615234376,-1.987816333770752,-0.535456657409668,-0.6835514903068542,16.88235009765625
1765999822677534700,22.49653466796875,-2.3118371963500977,-2.221355438232422,1.742110252380371,16.901129150390624
1765999822696313600,22.515313720703126,-2.730517864227295,-2.776200771331787,3.5228536128997803,16.919908203125
1765999822715092700,22.5340927734375,-3.14597749710083,-2.454955577850342,4.153993606567383,16.938687255859374
1765999822733871900,22.552871826171877,-2.7764668464660645,-1.9381556510925293,3.0262157917022705,16.95746630859375
1765999822752651000,22.571651123046877,-1.1067180633544922,-1.024655818939209,1.3305869102478027,16.97624560546875
1765999822771430100,22.59043017578125,-0.1250619888305664,-0.9461798667907716,-0.1727003157138824,16.995024658203125
1765999822790209000,22.609208984375,0.9842643737792968,-1.4877643585205078,-0.1943412721157074,17.013803466796876
1765999822818377700,22.637377685546877,0.2184152603149414,-2.759588718414306,2.402573108673096,17.04197216796875
1765999822837156900,22.65615698242188,-0.3195304870605469,-2.356618881225586,3.863670825958252,17.060751464843754
1765999822855935700,22.674935791015624,-0.9239277839660645,-1.3450698852539062,5.068816184997559,17.0795302734375
1765999822874715000,22.69371484375,-1.752861499786377,-0.7343149185180664,6.121735095977783,17.098309326171876
1765999822893494000,22.71249389648437,-2.360922336578369,-0.3944597244262695,5.775440692901611,17.117088378906246
1765999822921662700,22.74066284179688,-3.144103527069092,0.5940828323364258,4.008091926574707,17.145257324218754
1765999822940441600,22.759441650390624,-2.5956478118896484,2.018361091613769,3.2566704750061035,17.164036132812498
1765999822959220700,22.778220703125,-1.0501468181610107,3.7993860244750977,4.132684707641602,17.182815185546875
1765999822978000000,22.79699975585937,-0.8403918147087097,4.918760299682617,5.395663261413574,17.201594238281245
1765999822996779000,22.81577905273437,0.7964150309562683,4.026519775390625,5.906660079956055,17.220373535156245
1765999823015558000,22.834557861328125,-13.16236400604248,0.4579000473022461,-2.05187463760376,17.23915234375
1765999823034337000,22.8533369140625,-2.9334373474121094,4.048988342285156,-10.654379844665527,17.257931396484373
1765999823053116200,22.8721162109375,0.4671669006347656,1.8165016174316408,1.5122485160827637,17.276710693359373
1765999823071895300,22.89089526367188,-0.2056505680084228,-2.644125938415528,8.226690292358398,17.295489746093754
1765999823090674200,22.909674072265624,-2.0217738151550293,1.3379487991333008,3.5669124126434326,17.314268554687498
1765999823109453300,22.928453369140627,-1.976157546043396,1.1031103134155271,0.0256228446960449,17.3330478515625
1765999823128232400,22.947232421875,-1.0543177127838137,-0.9451842308044434,-4.411290168762207,17.351826904296875
1765999823147011600,22.96601147460937,0.0751280784606933,-1.7707719802856443,-6.132224082946777,17.370605957031245
1765999823165790700,22.984790771484374,-1.0389573574066162,-2.1168832778930664,-3.823530673980713,17.389385253906248
1765999823184569600,23.003569580078125,-1.6044020652770996,-2.0368003845214844,-0.6186048984527588,17.4081640625
1765999823203348700,23.0223486328125,-1.9485100507736208,-1.3798203468322754,0.7215044498443604,17.426943115234373
1765999823222127900,23.0411279296875,-2.0251011848449707,-0.727025032043457,0.3935277462005615,17.445722412109376
1765999823240907000,23.059906982421875,-2.3999907970428467,-0.74066162109375,-0.5051321983337402,17.46450146484375
1765999823259686000,23.078685791015623,-2.4886364936828613,-1.338150978088379,-1.1363275051116943,17.483280273437497
1765999823278465000,23.097465087890622,-2.6602766513824463,-2.132668972015381,-0.6936459541320801,17.502059570312497
1765999823297244200,23.116244140625,-2.9807469844818115,-2.6924118995666504,0.2641181945800781,17.520838623046874
1765999823316023300,23.135023193359373,-3.26688289642334,-2.839754581451416,0.761053740978241,17.539617675781248
1765999823334802200,23.15380224609375,-3.3841958045959477,-2.7133469581604004,0.7222535014152527,17.558396728515625
1765999823353581300,23.172581298828124,-3.117649555206299,-2.636117935180664,0.3219479322433471,17.57717578125
1765999823372360400,23.1913603515625,-2.8464388847351074,-2.657522201538086,-0.1404299139976501,17.595954833984376
1765999823391139600,23.2101396484375,-2.655071973800659,-2.5172290802001958,-0.6177375316619873,17.614734130859375
1765999823409918500,23.22891845703125,-2.286430597305298,-2.226810932159424,-0.8332723379135132,17.633512939453123
1765999823428697600,23.247697509765626,-1.9796209335327148,-2.0006065368652344,-0.7064152359962463,17.6522919921875
1765999823447476700,23.266476806640625,-1.7274479866027832,-1.849205017089844,-0.6666365265846252,17.6710712890625
1765999823466256000,23.285255859375,-1.7952651977539062,-1.5738115310668943,-0.3883847296237945,17.689850341796873
1765999823485034800,23.30403466796875,-1.811262607574463,-0.943906307220459,-0.2008781135082245,17.708629150390625
1765999823503814000,23.32281396484375,-1.5608091354370115,-0.1724381446838379,-0.0691896080970764,17.727408447265624
1765999823522593000,23.341593017578123,-0.9427609443664552,0.0715703964233398,0.0529894828796386,17.746187499999998
1765999823541372200,23.3603720703125,-0.4975881576538086,-0.0644078254699707,0.5416746139526367,17.764966552734375
1765999823560151300,23.3791513671875,-1.600736141204834,0.4866328239440918,0.9979709386825562,17.783745849609375
1765999823578930200,23.39793017578125,-4.955718040466309,3.606053352355957,2.1009247303009038,17.802524658203126
1765999823597709300,23.416709228515625,1.559908390045166,6.386087417602539,3.145885705947876,17.8213037109375
1765999823616488400,23.435488525390625,3.5528430938720703,5.2231855392456055,3.1227071285247803,17.8400830078125
1765999823635267600,23.454267578125,5.116361618041992,6.978936195373535,-3.319939374923706,17.858862060546873
1765999823654046500,23.47304638671875,5.030762672424316,7.080305099487305,-5.0046467781066895,17.877640869140624
1765999823672825600,23.49182568359375,4.312383651733398,2.94545841217041,-5.172197341918945,17.896420166015623
1765999823691604700,23.510604736328126,2.089056968688965,-0.4961671829223633,-4.384232521057129,17.91519921875
1765999823710383900,23.5293837890625,0.3695979118347168,-0.497746467590332,-3.486455202102661,17.933978271484374
1765999823729163000,23.5481630859375,-0.4838364124298095,1.4512338638305664,-3.1829512119293213,17.952757568359374
1765999823747942000,23.56694189453125,2.0606696605682373,1.6497173309326172,-3.021232843399048,17.971536376953125
1765999823766721000,23.585720947265624,2.951455354690552,0.65972900390625,-1.9384294748306277,17.9903154296875
1765999823785500200,23.604500244140624,3.625552177429199,-0.2369298934936523,-0.0804205909371376,18.0090947265625
1765999823813668600,23.632668701171877,2.367445707321167,-0.6065740585327148,2.9648547172546387,18.03726318359375
1765999823832447700,23.65144775390625,1.7341251373291016,-0.2340259552001953,1.927966594696045,18.056042236328125
1765999823851227000,23.670226806640624,1.519626498222351,-0.1260347366333007,0.3116990625858307,18.0748212890625
1765999823870006000,23.689006103515624,1.2852520942687988,0.0015830993652343,-0.8698714971542358,18.093600585937498
1765999823888785200,23.70778515625,1.1544911861419678,-0.1162862777709961,-0.6242198348045349,18.112379638671875
1765999823907564000,23.72656396484375,1.1247895956039429,-0.2376871109008789,-0.0325071662664413,18.131158447265623
1765999823926343200,23.74534326171875,0.973380446434021,-0.2304306030273437,0.8582582473754883,18.149937744140626
1765999823945122300,23.764122314453125,1.2529540061950684,0.0656757354736328,0.213444784283638,18.168716796875
1765999823963901400,23.7829013671875,2.0582332611083984,0.7369451522827148,-0.0468488037586212,18.187495849609373
1765999823982680600,23.8016806640625,3.210200786590576,0.9782590866088868,-0.4488953053951263,18.206275146484373
1765999824001459500,23.82045947265625,3.562354803085327,0.1668729782104492,-0.3861405849456787,18.225053955078124
1765999824020238600,23.839238525390623,4.114841461181641,-0.2852783203125,-0.8286217451095581,18.243833007812498
