time,seconds_elapsed,z,y,x,t
1765999814978118000,14.797117919921876,1.6482658386230469,3.3941938877105717,0.6843976378440857,9.15476513671875
1765999814996897000,14.81589697265625,-0.8414662480354309,4.53803825378418,0.8091667294502258,9.173544189453123
1765999815015676000,14.834676025390625,-1.2270746231079102,2.806541919708252,0.6902008652687073,9.192323242187499
1765999815034455000,14.853455078125,0.4373791813850403,2.5933501720428467,0.7622829079627991,9.211102294921874
1765999815053234000,14.87223388671875,0.4349357187747955,3.321348190307617,1.219667911529541,9.229881103515623
1765999815072013000,14.891012939453123,0.8904881477355957,2.1324524879455566,0.109115719795227,9.248660156249997
1765999815090792200,14.909792236328125,0.8823941946029663,0.0170278549194335,0.0843756943941116,9.267439453124998
1765999815109571000,14.928571044921876,1.023198485374451,-0.8329904675483704,0.1107956022024154,9.28621826171875
1765999815128350200,14.94735009765625,0.9957095980644226,-1.036561131477356,0.2027307450771331,9.304997314453123
1765999815147129300,14.96612939453125,0.8155044913291931,-0.7668643593788147,0.2186132371425628,9.323776611328125
1765999815165908200,14.984908203125,0.6553052067756653,-0.2021198868751526,0.0423787422478199,9.342555419921874
1765999815184687400,15.003687255859376,0.601396381855011,0.4731911420822143,-0.0597883909940719,9.36133447265625
1765999815203466500,15.022466552734375,0.6291907429695129,0.8655190467834473,-0.1216384470462799,9.380113769531249
1765999815222245400,15.041245361328125,0.5885682106018066,0.9711986184120178,-0.1543197184801101,9.398892578124999
1765999815241024500,15.0600244140625,0.4494437575340271,0.9101121425628662,-0.1621082425117492,9.417671630859374
1765999815259803400,15.078803466796876,0.3278816640377044,0.8084031939506531,-0.1816559135913849,9.43645068359375
1765999815278582500,15.09758251953125,0.3035998046398163,0.73204505443573,-0.2173915058374405,9.455229736328123
1765999815297361700,15.116361572265625,0.3207040131092071,0.7144827246665955,-0.2580140233039856,9.474008789062498
1765999815316140500,15.135140625,0.2571740746498108,0.6807324290275574,-0.2738964855670929,9.492787841796874
1765999815353698800,15.17269873046875,0.1488982886075973,0.5037343502044678,-0.2595411837100982,9.530345947265625
1765999815372477700,15.191477783203124,0.1050687432289123,0.3476584255695343,-0.2282343506813049,9.549124999999998
1765999815391256800,15.2102568359375,0.0557414107024669,0.2335794270038604,-0.1873064190149307,9.567904052734374
1765999815410036000,15.229035888671875,0.0232128612697124,0.1877645552158355,-0.1410334110260009,9.58668310546875
1765999815428814800,15.24781494140625,0.0183259434998035,0.2121991515159607,-0.0955239832401275,9.605462158203125
1765999815447594000,15.266593994140624,0.0062613640911877,0.2551124095916748,-0.0503199845552444,9.624241210937498
1765999815466373000,15.285373046875,0.0036651887930929,0.2905425727367401,-7.63580974307e-05,9.643020263671874
1765999815485152000,15.304152099609375,-0.0010690133785828,0.3572795391082763,0.0536797419190406,9.661799316406249
1765999815503931100,15.32293115234375,-0.0117591470479965,0.3956113159656524,0.106366828083992,9.680578369140624
1765999815522710000,15.3417099609375,-0.037720900028944,0.3649153411388397,0.1679114550352096,9.699357177734374
1765999815541489200,15.3604892578125,-0.0381790474057197,0.3308596312999725,0.2267071902751922,9.718136474609373
1765999815560268300,15.379268310546877,-0.0251981727778911,0.2664133906364441,0.2913061380386352,9.73691552734375
1765999815579047200,15.398047119140625,-0.050854492932558,0.1433241516351699,0.3643044829368591,9.755694335937498
1765999815597826300,15.416826416015626,-0.1059850379824638,0.0307723134756088,0.409508466720581,9.7744736328125
1765999815616605400,15.43560546875,-0.1429423540830612,-0.0860555768013,0.4394408464431762,9.793252685546873
1765999815635384600,15.454384521484377,-0.2325867712497711,-0.1285106837749481,0.4206567704677582,9.81203173828125
1765999815654163500,15.47316357421875,-0.3181078433990478,-0.0933859497308731,0.3510181605815887,9.830810791015624
1765999815672942600,15.491942626953126,-0.4561632871627807,-0.0613155514001846,0.2725220620632171,9.84958984375
1765999815691721500,15.510721435546875,-0.5899426341056824,-0.0193185992538929,0.1816559135913849,9.868368652343749
1765999815719890200,15.53889013671875,-0.7918334603309631,-0.046807512640953,0.0469602309167385,9.896537353515624
1765999815738669300,15.55766943359375,-0.9472985863685608,-0.0866664424538612,-0.0451276339590549,9.915316650390624
1765999815757448200,15.5764482421875,-1.1250602006912231,-0.0875827372074127,-0.1549305766820907,9.934095458984373
1765999815776227300,15.595227294921877,-1.277318239212036,-0.0872773081064224,-0.2920697331428528,9.95287451171875
1765999815795006500,15.61400634765625,-1.3403900861740112,0.0151952616870403,-0.4519635736942291,9.971653564453124
1765999815813785300,15.632785400390626,-1.368947982788086,0.2926805913448334,-0.5616137981414795,9.9904326171875
1765999815832564500,15.651564453125,-1.383150577545166,0.5600866675376892,-0.6109411120414734,10.009211669921873
1765999815851343600,15.670343505859377,-1.3242021799087524,0.423405647277832,-0.5991820096969604,10.02799072265625
1765999815870122500,15.68912255859375,-1.0030399560928345,-0.2482401728630066,-0.5858956575393677,10.046769775390624
1765999815888901600,15.707901611328126,-0.4572322964668274,-1.2497529983520508,-0.5296961069107056,10.065548828125
1765999815907680800,15.7266806640625,0.3956876695156097,-2.557309150695801,-0.3110065162181854,10.084327880859373
1765999815926459600,15.745459716796876,1.332601547241211,-3.842110395431519,0.2117410004138946,10.10310693359375
1765999815945238800,15.76423876953125,2.127031087875366,-4.3169050216674805,0.8452077507972717,10.121885986328124
1765999815964018000,15.783017822265624,2.47644591331482,-3.418781042098999,1.2830450534820557,10.140665039062497
1765999815982796800,15.801796875,2.4205517768859863,-1.9084179401397705,1.4062870740890503,10.159444091796875
1765999816001576000,15.820575927734374,2.167959213256836,-0.4269181191921234,1.3807834386825562,10.178223144531248
1765999816020355000,15.83935498046875,2.112523078918457,0.8549816012382507,1.2496002912521362,10.197002197265624
1765999816039134000,15.858134033203124,2.0970988273620605,1.4718023538589478,1.0191515684127808,10.215781249999997
1765999816057913000,15.8769130859375,2.210414171218872,1.7192025184631348,0.7722094655036926,10.234560302734375
1765999816076692200,15.895692138671874,2.366642951965332,1.7063744068145752,0.460821121931076,10.253339355468748
1765999816095471000,15.91447119140625,2.388633966445923,1.3082432746887207,0.2105192691087722,10.272118408203124
1765999816123639800,15.942639892578123,2.1000003814697266,0.0701730921864509,-0.1630245447158813,10.300287109374997
1765999816142419000,15.9614189453125,1.8600832223892207,-0.7059305906295776,-0.3117701113224029,10.319066162109374
1765999816161197800,15.98019775390625,1.546098709106445,-1.1598031520843506,-0.3084103465080261,10.337844970703124
1765999816179977000,15.99897705078125,1.2258528470993042,-1.2302052974700928,-0.2248746007680893,10.356624267578123
1765999816198755800,16.017755859375,0.7932079434394836,-0.524503767490387,-0.0998000353574752,10.375403076171875
1765999816217535000,16.036534912109374,0.3156643807888031,0.4847975671291351,-0.0900261998176574,10.394182128906248
1765999816236314000,16.055314208984374,-0.0954476222395896,1.2123374938964844,-0.0975092872977256,10.412961425781248
1765999816255093200,16.07409326171875,-0.5525271892547607,1.4930298328399658,-0.1966221034526825,10.431740478515625
1765999816273872100,16.0928720703125,-1.0790926218032837,1.300607442855835,-0.4200458824634552,10.450519287109373
1765999816292651300,16.1116513671875,-1.3755147457122805,0.6080395579338074,-0.5379427671432495,10.469298583984372
1765999816320819700,16.13981982421875,-0.5768090486526489,-0.1138499230146408,-0.3966803252696991,10.497467041015625
1765999816339598800,16.158598876953125,-0.1540906429290771,-0.6836340427398682,-0.5492438077926636,10.51624609375
1765999816358378000,16.1773779296875,-0.065057098865509,-1.117958903312683,-0.7181479334831238,10.535025146484374
1765999816377157000,16.1961572265625,-0.0725401937961578,-1.3363430500030518,-0.7969494462013245,10.553804443359377
1765999816395936000,16.21493603515625,-0.0636826530098915,-1.3349685668945312,-0.7512873411178589,10.572583251953125
1765999816414715100,16.233715087890626,-0.1336266696453094,-1.0260237455368042,-0.6416370868682861,10.591362304687502
1765999816433494000,16.252493896484374,-0.2779434621334076,-0.4177551567554474,-0.6020836234092712,10.61014111328125
1765999816452273200,16.271273193359374,-0.3536907136440277,0.2176969349384308,-0.6139954328536987,10.62892041015625
1765999816471052300,16.29005224609375,-0.3431532979011535,0.53931725025177,-0.6133846044540405,10.647699462890627
1765999816489831400,16.30883154296875,-0.3065013885498047,0.5513818264007568,-0.5999455451965332,10.666478759765626
1765999816508610300,16.3276103515625,-0.3132209181785583,0.368580549955368,-0.5811614990234375,10.685257568359377
1765999816527389400,16.346389404296875,-0.3323104381561279,0.2059377878904342,-0.5733729600906372,10.704036621093751
1765999816546168600,16.36516845703125,-0.3269653618335724,0.1914297491312027,-0.5747473835945129,10.722815673828125
1765999816564947500,16.383947509765626,-0.3481929302215576,0.3132972717285156,-0.5832995176315308,10.741594726562502
1765999816583726600,16.4027265625,-0.3773617148399353,0.488004595041275,-0.5904771685600281,10.760373779296875
1765999816602505700,16.421505615234373,-0.4039343297481537,0.5967385172843933,-0.6019308567047119,10.779152832031249
1765999816621284600,16.44028466796875,-0.4202749729156494,0.6289616227149963,-0.6092612743377686,10.797931884765626
1765999816640063700,16.459063720703124,-0.3924806118011474,0.5296961069107056,-0.6312524080276489,10.8167109375
1765999816677622000,16.4966220703125,-0.3633118271827698,0.330706924200058,-0.6422479748725891,10.854269287109377
1765999816696401000,16.51540087890625,-0.3381136655807495,0.25266894698143,-0.5759690999984741,10.873048095703124
1765999816715180000,16.534179931640626,-0.3478874862194061,0.1277471035718917,-0.4757873117923736,10.891827148437502
1765999816733959200,16.552959228515626,-0.3225366175174713,0.0133626665920019,-0.3478111326694488,10.910606445312501
1765999816752738000,16.571738037109377,-0.2631300091743469,-0.0765871703624725,-0.2135736048221588,10.929385253906252
1765999816771517200,16.59051708984375,-0.2037234008312225,-0.1923460513353347,-0.0975092872977256,10.948164306640626
1765999816790296300,16.60929638671875,-0.1826485693454742,-0.3062723278999328,-0.0008399390499107,10.966943603515626
1765999816809075200,16.6280751953125,-0.1826485693454742,-0.3786598145961761,0.0701730921864509,10.985722412109377
1765999816827854300,16.646854248046875,-0.1971566081047058,-0.3804923892021179,0.1150716543197631,11.00450146484375
1765999816846633500,16.665633544921874,-0.2260199636220932,-0.3965275883674621,0.1508072465658188,11.02328076171875
1765999816865412400,16.684412353515626,-0.2461785078048706,-0.3849211633205414,0.1897498667240142,11.042059570312501
1765999816884191500,16.70319140625,-0.2597702443599701,-0.3578903973102569,0.2404516488313675,11.060838623046875
1765999816902970600,16.721970703125,-0.2612974047660827,-0.3152825832366943,0.3088684976100921,11.079617919921875
1765999816921749800,16.740749755859376,-0.2406807243824005,-0.2842811942100525,0.408592164516449,11.098396972656252
1765999816940528600,16.759528564453124,-0.1951712965965271,-0.2671769857406616,0.5698604583740234,11.11717578125
1765999816959307800,16.778307861328123,-0.1053741723299026,-0.256792277097702,0.8172607421875,11.135955078124999
1765999816978087000,16.7970869140625,0.075441800057888,-0.119500420987606,1.176754593849182,11.154734130859376
1765999816996865800,16.81586572265625,0.3698786199092865,0.0145843969658017,1.633223295211792,11.173512939453124
1765999817015645000,16.83464501953125,0.7118101716041565,-0.1643989831209182,1.9491931200027464,11.192292236328127
1765999817034424000,16.853424072265625,0.9679152369499208,-0.7883973717689514,1.9653810262680051,11.2110712890625
