time,seconds_elapsed,z,y,x,t
1765999826010821000,25.829821044921875,3.4509153366088867,0.2749624252319336,2.2541160583496094,20.23441552734375
1765999826029600300,25.848600341796875,0.264241099357605,0.8899745941162109,2.9583239555358887,20.25319482421875
1765999826048379100,25.867379150390622,-1.6788161993026731,-1.6737289428710938,3.146901607513428,20.271973632812497
1765999826067158300,25.886158203125,-2.3370895385742188,-2.394293785095215,1.3449718952178955,20.290752685546874
1765999826085937400,25.9049375,-2.013975143432617,-2.0830864906311035,-1.2992316484451294,20.309531982421873
1765999826104716500,25.923716552734376,-1.9742423295974727,-2.2581138610839844,-1.549041986465454,20.32831103515625
1765999826123495400,25.942495361328124,-2.1611883640289307,-2.414159774780273,-0.3509632349014282,20.34708984375
1765999826142274600,25.961274658203124,-2.8163533210754395,-2.7700414657592773,1.2124602794647217,20.365869140624998
1765999826170443300,25.989443359375,-3.226646423339844,-3.0544543266296387,2.25418472290039,20.394037841796873
1765999826189222100,26.00822216796875,-3.3323628902435303,-3.299435615539551,1.340733766555786,20.412816650390624
1765999826208001300,26.027001220703124,-2.884345293045044,-3.750056266784668,0.3506876230239868,20.431595703124998
1765999826226780400,26.045780517578127,-2.910676956176758,-4.103052139282227,-0.123433381319046,20.450375
1765999826245559600,26.0645595703125,-2.9934277534484863,-4.386205673217773,-0.2955245971679687,20.469154052734375
1765999826264338700,26.083338623046878,-2.9178152084350586,-4.554819107055664,0.1480065584182739,20.487933105468752
1765999826283117600,26.10211767578125,-3.077385902404785,-4.481935024261475,0.2544068098068237,20.506712158203126
1765999826301896700,26.120896728515625,-3.151236295700073,-4.307971477508545,0.000250220298767,20.5254912109375
1765999826320675800,26.13967578125,-2.9901227951049805,-4.160404682159424,-0.3704708814620971,20.544270263671873
1765999826339455000,26.158455078125,-2.884783983230591,-3.8681716918945312,-0.6000100374221802,20.563049560546876
1765999826358234000,26.17723413085937,-2.7099199295043945,-3.26711654663086,-0.7103475332260132,20.581828613281246
1765999826377013000,26.196012939453126,-2.546624660491944,-2.542844772338867,-0.5123978853225708,20.600607421875
1765999826395792100,26.21479223632813,-2.438151359558105,-2.3858542442321777,-0.3664079904556274,20.619386718750004
1765999826414571300,26.2335712890625,-2.5400514602661133,-2.2087464332580566,-0.1656317710876464,20.638165771484374
1765999826433350400,26.252350341796877,-2.526319026947021,-1.674211025238037,-0.2525548934936523,20.65694482421875
1765999826461518800,26.28051879882813,-2.537043571472168,-0.720545768737793,0.2562928199768066,20.685113281250004
1765999826480298000,26.29929809570313,-2.6504597663879395,-0.2724971771240234,0.4952321052551269,20.703892578125004
1765999826499077000,26.3180771484375,-2.6324143409729004,-0.0739054679870605,0.6137638092041016,20.722671630859374
1765999826517856000,26.33685595703125,-2.8778533935546875,0.3334002494812011,1.0229426622390747,20.741450439453125
1765999826536635100,26.35563525390625,-2.2707061767578125,0.9151115417480468,1.3196210861206057,20.760229736328125
1765999826555414300,26.374414306640624,-1.7386493682861328,1.6018376350402832,1.8075289726257324,20.779008789062498
1765999826574193400,26.393193359375,-1.560710906982422,2.161952495574951,2.163144588470459,20.797787841796875
1765999826592972500,26.41197265625,-1.6980223655700684,2.7272496223449707,2.818204879760742,20.816567138671875
1765999826611751400,26.43075146484375,-0.9400386810302734,3.034062385559082,3.777641773223877,20.835345947265623
1765999826630530600,26.449530517578125,-1.4138860702514648,3.501037120819092,4.476116180419922,20.854125
1765999826649309700,26.468309814453125,0.4958405494689941,6.567102432250977,6.41508674621582,20.872904296875
1765999826668088800,26.4870888671875,4.66080904006958,5.323378562927246,5.5476975440979,20.891683349609373
1765999826686867700,26.50586767578125,5.554499626159668,4.536421775817871,0.9101841449737548,20.910462158203124
1765999826705646800,26.524646728515624,9.154876708984377,4.964672088623047,-3.931631326675415,20.929241210937498
1765999826724426000,26.543426025390627,8.181486129760742,4.695915222167969,-6.886682033538818,20.9480205078125
1765999826743205000,26.562205078125,6.905927658081055,2.97998046875,-6.929182052612305,20.966799560546875
1765999826761984300,26.580984375,6.004850387573242,0.6584434509277344,-6.1740336418151855,20.985578857421874
1765999826780763100,26.59976318359375,5.827722549438477,-1.1961207389831543,-2.8447365760803223,21.004357666015625
1765999826799542300,26.618542236328125,5.986881256103516,-1.569596767425537,-0.0582087412476539,21.02313671875
1765999826818321400,26.6373212890625,5.453019618988037,0.2388839721679687,0.3488063812255859,21.041915771484373
1765999826846490000,26.665489990234374,2.8853554725646973,2.5163049697875977,-1.439626932144165,21.070084472656248
1765999826865269200,26.684269287109377,1.7708439826965332,1.912042617797852,-2.6521542072296143,21.08886376953125
1765999826884048100,26.703048095703124,1.6294283866882324,1.3643169403076172,-2.9816081523895264,21.107642578125
1765999826902827300,26.7218271484375,2.619816780090332,2.228246688842773,-3.654729604721069,21.126421630859376
1765999826921606400,26.7406064453125,4.001686096191406,3.3215770721435547,-4.808465480804443,21.145200927734376
1765999826940385500,26.759385498046875,5.0144124031066895,4.2517194747924805,-5.880936622619629,21.16397998046875
1765999826959164700,26.77816455078125,4.612664222717285,5.144227027893066,-5.891470432281494,21.182759033203123
1765999826977943600,26.796943603515626,2.740864515304565,5.718637943267822,-4.5153656005859375,21.2015380859375
1765999826996722700,26.81572265625,1.148679256439209,4.673872470855713,-1.9263014793396,21.220317138671874
1765999827015501800,26.834501708984376,0.2965240478515625,1.655442714691162,1.2608439922332764,21.23909619140625
1765999827034281000,26.853281005859376,-0.0802497863769531,-0.9795985221862792,4.267854690551758,21.25787548828125
1765999827053060000,26.87206005859375,-2.4759631156921387,-3.108832359313965,5.934701919555664,21.276654541015624
1765999827071839000,26.8908388671875,-3.1318559646606445,-3.951521396636963,4.2152628898620605,21.295433349609375
1765999827090618000,26.9096181640625,-0.6021485328674316,-3.252207040786743,1.530381202697754,21.314212646484375
1765999827109397200,26.928397216796878,0.983513355255127,-1.7266993522644043,0.409014344215393,21.332991699218752
1765999827128176400,26.94717626953125,0.8346953392028809,-0.9367289543151855,-0.3662006258964538,21.351770751953126
1765999827146955300,26.965955322265625,-0.2394795417785644,-1.5726971626281738,1.116166591644287,21.3705498046875
1765999827165734400,26.984734375,-1.3822507858276367,-2.3124561309814453,3.525972366333008,21.389328857421873
1765999827184513500,27.003513427734376,-2.7871665954589844,-2.2273874282836914,5.208698749542236,21.40810791015625
1765999827203292700,27.022292724609372,-4.893698215484619,-0.3129825592041015,6.696554660797119,21.426887207031246
1765999827222071800,27.04107177734375,-5.150445938110352,2.0561065673828125,7.4777631759643555,21.445666259765623
1765999827240850700,27.0598505859375,-4.082704067230225,3.841565132141113,5.617665767669678,21.464445068359375
1765999827259629800,27.0786298828125,-1.8900299072265625,4.653692245483398,3.7956173419952393,21.483224365234374
1765999827278409000,27.097408935546877,3.801756858825684,3.6203861236572266,3.162356376647949,21.50200341796875
1765999827297188000,27.11618798828125,-11.45346736907959,-1.3438735008239746,-0.2817120552062988,21.520782470703125
1765999827315967000,27.134967041015624,5.648852348327637,3.7150068283081055,-6.56527853012085,21.5395615234375
1765999827334746000,27.15374609375,-1.366217851638794,0.5505990982055664,6.628029823303223,21.558340576171876
1765999827353525200,27.17252514648437,-1.7559748888015747,-3.565375804901123,2.9142236709594727,21.577119628906246
1765999827372304400,27.19130444335937,-2.074782371520996,-1.0633306503295898,1.4040257930755615,21.595898925781245
1765999827391083300,27.21008325195313,-2.4682557582855225,-0.2978639602661133,2.793486356735229,21.614677734375004
1765999827409862400,27.2288623046875,-2.7319767475128174,-2.237401962280273,1.842949628829956,21.633456787109374
1765999827428641500,27.2476416015625,-0.8429823517799377,-2.300104141235352,1.3808023929595947,21.652236083984373
1765999827447420700,27.26642065429688,-0.538547158241272,-1.776285171508789,0.4717648029327392,21.671015136718754
1765999827466199800,27.28519970703125,-1.129629611968994,-1.4382624626159668,-0.4254825115203857,21.689794189453124
1765999827484978700,27.303978759765624,-1.151166319847107,-1.4847478866577148,-0.3424131870269775,21.708573242187498
1765999827522537000,27.34153686523437,-1.822787523269653,-1.2143306732177734,-0.5576963424682617,21.746131347656245
1765999827541316000,27.36031616210937,-1.7335424423217771,-0.9858722686767578,-0.5712475776672363,21.764910644531245
1765999827560095000,27.379094970703125,-3.048370361328125,-1.3277044296264648,0.8120474815368652,21.783689453125
1765999827578874000,27.3978740234375,-3.735558032989502,-1.5553951263427734,1.2025151252746582,21.802468505859373
1765999827597653200,27.4166533203125,-4.442809104919434,-1.8255047798156736,1.5288796424865725,21.821247802734373
1765999827616432400,27.43543237304688,-4.575320720672607,-1.9350051879882808,1.693363904953003,21.840026855468754
1765999827653990400,27.472990478515623,-3.2206718921661377,-1.145465850830078,2.086559295654297,21.877584960937497
1765999827672769500,27.49176953125,-2.280287742614746,-0.6754379272460938,1.0511653423309326,21.896364013671874
1765999827691548700,27.510548583984374,-2.111202478408813,0.0985298156738281,0.1336452960968017,21.915143066406248
1765999827710327800,27.529327880859373,-2.0473618507385254,2.9433746337890625,-0.0625908374786377,21.933922363281248
1765999827729106700,27.548106689453125,3.605725765228272,4.04128360748291,-3.360553026199341,21.952701171875
1765999827747885800,27.5668857421875,4.413114547729492,0.89154052734375,-6.156580448150635,21.971480224609376
1765999827766665000,27.5856650390625,2.710474967956543,-1.1297903060913086,-4.595914840698242,21.990259521484376
1765999827785444000,27.604444091796875,1.9456883668899536,-0.0939788818359375,-3.3818395137786865,22.00903857421875
1765999827804223200,27.62322314453125,2.089557647705078,0.5942783355712891,-2.2638425827026367,22.027817626953123
1765999827823002000,27.642002197265622,2.249610662460327,0.757990837097168,-2.512091398239136,22.046596679687497
1765999827841781200,27.66078125,1.2113968133926392,-0.2112951278686523,-0.917496919631958,22.065375732421874
1765999827860560400,27.679560302734377,1.4601248502731323,-0.7509298324584961,0.0137245655059814,22.08415478515625
1765999827888729000,27.70772900390625,2.567191362380981,-0.4836435317993164,0.1637604236602783,22.112323486328123
1765999827907508200,27.72650830078125,1.504105806350708,-0.4827594757080078,-0.7118196487426758,22.131102783203126
1765999827926287000,27.745287109375,1.1674212217330933,-0.7247562408447266,-0.882373571395874,22.149881591796873
1765999827945066200,27.764066162109376,0.911107063293457,-0.5473203659057617,-0.2389235496520996,22.16866064453125
1765999827963845400,27.782845458984376,0.2177889347076416,-0.2110509872436523,-0.105926513671875,22.18743994140625
1765999827982624500,27.80162451171875,0.1609125137329101,-0.2325983047485351,-0.3505065441131592,22.206218994140624
1765999828020182500,27.8391826171875,-0.4918967485427856,1.1946392059326172,0.2157802581787109,22.243777099609375
1765999828038961700,27.857961669921878,-0.7833255529403687,0.8109712600708008,0.8286898136138916,22.262556152343752
1765999828057740800,27.87674072265625,-0.5762253999710083,-0.1673603057861328,1.2940306663513184,22.281335205078125
1765999828085909500,27.904909423828126,-0.0942438840866088,0.1863002777099609,0.7389073371887207,22.30950390625
1765999828104688600,27.92368872070313,0.4445610046386719,0.2578039169311523,0.790123462677002,22.328283203125004
