time,seconds_elapsed,z,y,x,t
1765999808884326400,8.703326416015624,0.1566868126392364,-1.190346360206604,-1.3705514669418335,3.060973632812498
1765999808903105300,8.722105224609376,0.1171333193778991,-1.8435134887695312,-1.1333832740783691,3.0797524414062494
1765999808921884400,8.740884521484375,0.0549778304994106,-1.691866397857666,-0.8855248689651489,3.098531738281249
1765999808940663300,8.759663330078125,0.0490218997001647,-0.9634101390838624,-0.8484148383140564,3.1173105468749984
1765999808959442400,8.7784423828125,0.0769689604640007,-0.2546542584896087,-0.8392518758773804,3.136089599609374
1765999808978221300,8.79722119140625,-0.0151189034804701,-0.0205403286963701,-0.7056251764297485,3.1548684082031233
1765999808997000400,8.81600048828125,-0.2162461280822754,-0.0808632224798202,-0.625907301902771,3.1736477050781247
1765999809015779300,8.834779296875,-0.1982256174087524,0.1150716543197631,-0.6581304669380188,3.192426513671874
1765999809034558200,8.85355810546875,-0.0812450125813484,0.4336376488208771,-0.6420952677726746,3.2112053222656236
1765999809053337300,8.87233740234375,-0.0697913020849227,0.3116174042224884,-0.4878518879413605,3.229984619140623
1765999809072116200,8.8911162109375,-0.0371100343763828,0.152487114071846,-0.2858083546161651,3.2487634277343744
1765999809090895400,8.909895263671874,0.1766926348209381,-0.2132681608200073,-0.0649807378649711,3.267542480468748
1765999809109674200,8.92867431640625,0.3720166385173797,-0.5321395993232727,0.1564577370882034,3.2863215332031235
1765999809128453400,8.947453369140625,0.6044507026672363,-0.6478984355926514,0.4273762702941894,3.305100585937499
1765999809147232300,8.966232177734375,0.8883501291275024,-0.5782598853111267,0.7923679947853088,3.3238793945312484
1765999809166011400,8.985011474609376,1.1707223653793335,-0.4791470468044281,1.1651482582092283,3.3426586914062497
1765999809184790300,9.003790283203125,1.3611594438552856,-0.5020545125007629,1.357723355293274,3.361437499999999
1765999809203569400,9.0225693359375,1.5905392169952393,-0.5811614990234375,1.5322779417037964,3.3802165527343746
1765999809222348300,9.041348388671874,1.5479313135147097,-0.6799688339233398,1.6604068279266355,3.3989956054687482
1765999809241127200,9.060127197265626,1.3362667560577393,-0.8728494048118591,1.6811761856079102,3.4177744140624995
1765999809259906300,9.07890625,0.9615011811256408,-0.936073899269104,1.5477023124694824,3.436553466796873
1765999809278685200,9.097685302734376,0.4778489768505096,-0.6799688339233398,1.419573426246643,3.4553325195312503
1765999809297464300,9.11646435546875,0.0543669648468494,-0.2430478185415268,1.4855468273162842,3.474111572265624
1765999809316243200,9.1352431640625,-0.1307250559329986,0.377743512392044,1.4510328769683838,3.4928903808593734
1765999809335022300,9.154022216796877,-0.3370446562767029,0.7547997832298279,1.4994440078735352,3.5116694335937506
1765999809353801200,9.17280126953125,-0.6766854524612427,0.627434492111206,1.4890592098236084,3.5304484863281242
1765999809372580400,9.191580322265626,-1.0847431421279907,0.2780198454856872,1.4763838052749634,3.5492275390624997
1765999809391359200,9.210359130859375,-1.4782928228378296,-0.1520289778709411,1.4855468273162842,3.568006347656249
1765999809410138000,9.22913818359375,-1.8188499212265012,-0.4722748398780823,1.5093705654144287,3.5867854003906245
1765999809428917200,9.247917236328124,-2.120311737060547,-0.6555342674255371,1.527849197387695,3.605564453124998
1765999809447696100,9.266696044921876,-2.3840525150299072,-0.5561160445213318,1.5165481567382812,3.6243432617187494
1765999809466475300,9.285475341796875,-2.57891845703125,-0.1584430485963821,1.4354559183120728,3.643122558593749
1765999809485254100,9.304254150390625,-2.654512882232666,0.3511708974838257,1.2758674621582031,3.6619013671874985
1765999809504033000,9.323032958984374,-2.6305365562438965,0.705472469329834,1.0814597606658936,3.680680175781248
1765999809522812200,9.341812255859375,-2.573420524597168,0.8065705895423889,0.8607848286628723,3.6994594726562493
1765999809541591300,9.36059130859375,-2.472627878189087,0.692186176776886,0.5703186392784119,3.7182385253906247
1765999809560370200,9.3793701171875,-2.413832187652588,0.3661370873451233,0.1946367919445037,3.737017333984374
1765999809579149000,9.398149169921876,-2.4069600105285645,-0.0768926069140434,-0.3009272515773773,3.7557963867187496
1765999809597928200,9.41692822265625,-2.4793474674224854,-0.5529089570045471,-0.8636864423751831,3.7745754394531232
1765999809626096600,9.4450966796875,-2.662454128265381,-1.092760682106018,-1.8983386754989624,3.8027438964843743
1765999809644875500,9.46387548828125,-2.7250678539276123,-1.0391573905944824,-2.777373075485229,3.8215227050781237
1765999809663654700,9.482654541015624,-2.6665775775909424,-0.5701659321784973,-3.8005716800689697,3.8403017578124974
1765999809682433500,9.50143359375,-2.212857723236084,1.0189988613128662,-4.892644882202148,3.8590808105468746
1765999809701212700,9.520212646484374,-1.7540981769561768,2.955134630203247,-5.394317626953125,3.877859863281248
1765999809729381000,9.548381103515624,-1.9193371534347532,3.0203444957733154,-4.287736415863037,3.9060283203124975
1765999809748160000,9.567159912109377,0.3506363928318023,0.3751473426818847,-2.717355728149414,3.9248071289062505
1765999809776328400,9.595328369140624,1.5147919654846191,-0.6894372701644897,-1.8294636011123655,3.952975585937498
1765999809795107600,9.614107666015624,0.836121141910553,-1.658879637718201,-2.58769965171814,3.9717548828124976
1765999809813886500,9.632886474609377,1.2922844886779783,-1.8797073364257808,-1.7535637617111206,3.9905336914062506
1765999809832665600,9.65166552734375,1.6908737421035769,0.5170207023620605,-1.0985639095306396,4.009312744140624
1765999809851444500,9.670444580078126,0.9569196701049804,3.502774953842163,0.395764023065567,4.028091796875
1765999809870223600,9.6892236328125,-0.8080213665962219,4.689685344696045,1.2121847867965698,4.046870849609373
1765999809889002500,9.70800244140625,0.1087339296936988,5.143099784851074,1.1711041927337646,4.0656496582031245
1765999809907781600,9.72678173828125,1.26021409034729,4.58064603805542,0.6052906513214111,4.084428955078124
1765999809926560500,9.745560546875,0.7437278628349304,0.9666171669960022,0.1120173260569572,4.103207763671874
1765999809945339600,9.764339599609375,0.9246965646743774,-1.9740859270095823,-0.3285689055919647,4.121986816406249
1765999809964118500,9.783118408203125,2.1354305744171143,-3.403051376342773,-0.1816559135913849,4.1407656249999985
1765999809982897400,9.8018974609375,2.5219552516937256,-3.4624578952789307,0.1582903414964676,4.159544677734374
1765999810011066000,9.830066162109375,1.128878116607666,-1.468289852142334,0.3220020830631256,4.187713378906249
1765999810029845000,9.848844970703125,0.9037744402885436,0.2764926850795746,0.2062432169914245,4.2064921874999985
1765999810048624000,9.8676240234375,0.7903063297271729,1.463861107826233,0.1036179363727569,4.225271240234374
1765999810067403000,9.886403076171876,0.7338013052940369,1.686215877532959,0.0035888305865228,4.244050292968749
1765999810086182100,9.90518212890625,0.633619487285614,1.4533237218856812,-0.1057559624314308,4.262829345703123
1765999810104961000,9.9239609375,0.4529562294483185,0.935157597064972,-0.1703549176454544,4.281608154296874
1765999810123740000,9.942739990234376,0.314748078584671,0.3815613985061645,-0.2280816435813903,4.30038720703125
1765999810142519000,9.96151904296875,0.238542690873146,0.0553596206009388,-0.294207751750946,4.319166259765623
1765999810161298000,9.9802978515625,0.2145662605762481,0.0289397183805704,-0.3389535844326019,4.3379450683593745
1765999810180077000,9.9990771484375,0.1241582632064819,0.1482110619544983,-0.3484219908714294,4.356724365234374
1765999810198856200,10.017856201171876,-0.0300850905478,0.2629009187221527,-0.3446041047573089,4.3755034179687495
1765999810217635000,10.036635009765623,-0.1498145908117294,0.2632063627243042,-0.3191004991531372,4.394282226562497
1765999810236414000,10.0554140625,-0.2455676347017288,0.1708130687475204,-0.274812787771225,4.413061279296874
1765999810255193000,10.074193115234374,-0.3371973633766174,0.0904843434691429,-0.2267071902751922,4.431840332031248
1765999810273972000,10.092971923828124,-0.4001164436340332,0.1120173260569572,-0.1873064190149307,4.4506191406249975
1765999810292751000,10.111751220703123,-0.4195113778114319,0.218002364039421,-0.1503490954637527,4.469398437499997
1765999810311530000,10.130530029296876,-0.4027126133441925,0.3412443399429321,-0.1188895553350448,4.48817724609375
1765999810330309000,10.14930908203125,-0.374765545129776,0.4605156779289245,-0.0874300226569175,4.506956298828124
1765999810349088000,10.168087890625,-0.3561341762542724,0.4643335938453674,-0.0303141642361879,4.525735107421873
1765999810367867100,10.1868671875,-0.3162752389907837,0.3829358518123626,0.0264962594956159,4.544514404296875
1765999810386646000,10.20564599609375,-0.2831358313560486,0.3268890082836151,0.085597425699234,4.563293212890624
1765999810405425200,10.224425048828126,-0.268627792596817,0.224569171667099,0.1599702090024948,4.5820722656249995
1765999810424204000,10.2432041015625,-0.2861901521682739,0.2126573026180267,0.2270126193761825,4.600851318359373
1765999810442983200,10.261983154296876,-0.2936732470989227,0.2004400044679641,0.2725220620632171,4.61963037109375
1765999810461762000,10.280761962890624,-0.2828303873538971,0.0640644431114196,0.3006218373775482,4.638409179687498
1765999810480541200,10.299541259765626,-0.3161225318908691,-0.1249982044100761,0.2917642891407013,4.657188476562499
1765999810499320000,10.318320068359377,-0.3721693754196167,-0.2749654948711395,0.2409097999334335,4.675967285156251
1765999810518099200,10.33709912109375,-0.4595230221748352,-0.4136318266391754,0.1705076247453689,4.694746337890624
1765999810536878000,10.355878173828126,-0.5774199366569519,-0.4620428383350372,0.0875827372074127,4.713525390625
1765999810555657200,10.3746572265625,-0.7351757884025574,-0.3861429095268249,-0.0133626665920019,4.732304443359373
1765999810583825700,10.40282568359375,-0.9245438575744628,-0.075212724506855,-0.185321107506752,4.760472900390624
1765999810602604500,10.4216044921875,-0.9949460029602052,0.1721875071525573,-0.294207751750946,4.779251708984374
1765999810621383700,10.4403837890625,-1.0323615074157717,0.3898080885410309,-0.3979020416736603,4.798031005859373
1765999810640162600,10.45916259765625,-0.9642500281333924,0.4670824706554413,-0.4466184973716736,4.816809814453125
1765999810658941700,10.477941650390624,-0.7197514176368713,0.2738964855670929,-0.4392881393432617,4.835588867187498
1765999810677720600,10.496720458984376,-0.2947422564029693,-0.2868773639202118,-0.3392590284347534,4.8543676757812495
1765999810696499700,10.515499755859375,0.4395171999931335,-1.1677443981170654,-0.0956766977906227,4.873146972656249
1765999810715278600,10.534278564453125,1.3628393411636353,-2.387488603591919,0.2746600806713104,4.8919257812499986
1765999810734057700,10.5530576171875,2.0580034255981445,-3.519421100616455,0.6891318559646606,4.910704833984374
1765999810752836600,10.571836669921876,2.425591230392456,-3.5009424686431885,1.0420589447021484,4.929483886718749
1765999810771615700,10.59061572265625,2.531423568725586,-2.5906012058258057,1.2828923463821411,4.948262939453123
1765999810790394600,10.60939453125,2.455981731414795,-1.5834379196166992,1.4171298742294312,4.967041748046874
1765999810809173800,10.628173828125,2.3909246921539307,-0.641331672668457,1.347949504852295,4.985821044921874
1765999810827952600,10.64695263671875,2.216370105743408,0.1396589577198028,1.0006728172302246,5.004599853515623
1765999810846731800,10.665731689453125,1.6328415870666504,0.3293324708938598,0.5127446055412292,5.023378906249999
1765999810865510700,10.6845107421875,0.9028581380844116,-0.0315358936786651,-0.1793651729822158,5.042157958984374
1765999810884289800,10.703289794921876,-0.1782197952270507,-1.1481966972351074,-1.1700351238250732,5.0609370117187495
1765999810903068700,10.722068603515623,-1.211344838142395,-2.3448808193206787,-1.706068992614746,5.079715820312497
1765999810921847800,10.740847900390625,-0.980132520198822,-2.149556875228882,-0.699821949005127,5.098495117187499
