time,seconds_elapsed,z,y,x,t
1766000684367344400,6.168344482421875,1.9871621131896973,2.5374021530151367,-1.587957739830017,4.103646728515625
1766000684386125300,6.187125244140625,1.8474512100219729,2.1903886795043945,-1.587626814842224,4.122427490234375
1766000684404906500,6.205906494140625,1.8365135192871092,2.013812065124512,-1.6135261058807373,4.141208740234375
1766000684423687400,6.2246875,1.7849993705749512,1.8967127799987795,-1.5279254913330078,4.15998974609375
1766000684451859000,6.25285888671875,1.5854458808898926,1.4720005989074707,-1.3344378471374512,4.1881611328125
1766000684480030500,6.281030517578125,1.422072410583496,1.5240225791931152,-1.143204927444458,4.216332763671875
1766000684498811400,6.299811279296875,1.1966156959533691,1.4843602180480957,-0.8825859427452087,4.2351135253906245
1766000684517592600,6.318592529296875,0.8776435852050781,1.2472000122070312,-0.6902861595153809,4.253894775390625
1766000684545764000,6.34676416015625,0.2531490325927734,0.9802694320678712,0.0512678623199462,4.28206640625
1766000684573935600,6.374935546875,-0.5066251754760742,0.1392173767089843,0.6686992645263672,4.31023779296875
1766000684592716500,6.393716552734375,-0.6234312057495117,-0.5297050476074219,0.6198824644088745,4.329018798828125
1766000684611497500,6.41249755859375,-0.7502279281616211,-0.572906494140625,1.014394998550415,4.3477998046875
1766000684630278700,6.431278564453125,-1.360428810119629,-1.9834465980529783,2.609963893890381,4.366580810546875
1766000684649059600,6.4500595703125,-1.055328369140625,-4.731219291687012,1.812179446220398,4.38536181640625
1766000684667840500,6.468840576171875,-10.95891571044922,1.1341619491577148,2.3308846950531006,4.404142822265625
1766000684686621700,6.48762158203125,3.321962118148804,-2.185614109039306,0.3491249680519104,4.422923828125
1766000684705402600,6.506402587890625,1.9736788272857664,-7.400286674499512,2.0518054962158203,4.4417048339843745
1766000684724183600,6.52518359375,-0.3634853363037109,-7.256549835205078,-1.3535555601119995,4.4604858398437495
1766000684742964700,6.54396484375,-0.331820011138916,-2.899110794067383,-0.6172665953636169,4.47926708984375
1766000684761745700,6.56274560546875,0.2294225692749023,0.3552894592285156,2.048356294631958,4.4980478515625
1766000684780526600,6.581526611328125,0.4352307319641113,-1.8326301574707031,3.2575576305389404,4.516828857421875
1766000684799307800,6.600307861328125,-0.3709588050842285,-2.553058624267578,1.9739933013916016,4.535610107421875
1766000684818088700,6.619088623046875,-0.8736038208007812,-1.2186360359191897,1.619418025016785,4.554390869140625
1766000684836869600,6.63786962890625,-1.025787353515625,-0.8008246421813965,1.0861196517944336,4.573171875
1766000684855650800,6.65665087890625,-0.8428783416748047,-1.0155644416809082,0.0520922541618347,4.591953125
1766000684874431700,6.675431640625,-0.9021239280700684,-0.5738673210144043,-0.4294883906841278,4.61073388671875
1766000684893212700,6.694212646484375,-0.6940317153930664,0.2482786178588867,0.0360569357872009,4.629514892578125
1766000684911993900,6.712993896484375,-0.2653741836547851,0.18516206741333,0.2166829705238342,4.648296142578125
1766000684930774800,6.73177490234375,0.0647482872009277,0.228792667388916,-0.4125280976295471,4.6670771484374995
1766000684949556000,6.750555908203125,0.2176003456115722,0.7716784477233887,-0.612106204032898,4.6858581542968745
1766000684968337000,6.7693369140625,-0.0905227661132812,0.944580078125,-0.6139416694641113,4.70463916015625
1766000684987117800,6.788117919921875,-0.4162049293518066,0.982266902923584,-0.6009908318519592,4.723420166015625
1766000685015289300,6.816289306640625,0.3166403770446777,1.462265968322754,-1.4270994663238523,4.751591552734375
1766000685034070500,6.835070556640625,1.0519638061523438,1.7766361236572266,-1.866579294204712,4.770372802734375
1766000685052851500,6.8538515625,1.3890633583068848,1.9923157691955569,-1.5420129299163818,4.78915380859375
1766000685071632400,6.87263232421875,1.6616230010986328,2.16530990600586,-1.10548734664917,4.8079345703125
1766000685090413600,6.89141357421875,1.687666893005371,2.402198314666748,-0.9373797178268432,4.8267158203125
1766000685109194500,6.910194580078125,1.5506062507629397,2.350658416748047,-0.9313935041427612,4.845496826171875
1766000685127975400,6.928975341796875,1.6934599876403809,2.2615675926208496,-0.8134103417396545,4.864277587890625
1766000685146756600,6.947756591796875,1.9711456298828125,2.4799675941467285,-0.7549911737442017,4.883058837890625
1766000685174928100,6.97592822265625,2.2723588943481445,2.522571563720703,-0.8386008739471436,4.9112304687499995
1766000685193709000,6.994708984375,2.5472517013549805,2.6896090507507324,-0.9282734394073486,4.93001123046875
1766000685212490200,7.013490234375,2.6285128593444824,2.8079819679260254,-1.0027053356170654,4.94879248046875
1766000685231271200,7.032271240234375,2.5416555404663086,2.645806312561035,-1.044295072555542,4.967573486328125
1766000685250052000,7.051052001953125,2.358400821685791,2.211761951446533,-1.126563549041748,4.986354248046875
1766000685268833300,7.069833251953125,2.1817450523376465,1.8953537940979004,-1.1777656078338623,5.005135498046875
1766000685287614200,7.0886142578125,1.8330402374267576,1.7739992141723633,-1.1142297983169556,5.02391650390625
1766000685306395100,7.10739501953125,1.474687576293945,1.783370018005371,-1.0155335664749146,5.042697265625
1766000685325176300,7.12617626953125,1.2650156021118164,1.539506912231445,-0.9746843576431274,5.061478515625
1766000685343957200,7.144957275390625,1.343520164489746,1.6250696182250977,-1.0696425437927246,5.080259521484375
1766000685362738200,7.16373828125,1.1948494911193848,1.5557336807250977,-1.2420737743377686,5.09904052734375
1766000685381519400,7.182519287109375,0.953927516937256,1.156280517578125,-1.355689525604248,5.1178215332031245
1766000685400300300,7.20130029296875,0.6752548217773438,0.8198738098144531,-1.2899510860443115,5.1366025390625
1766000685419081200,7.220081298828125,0.4635944366455078,0.7795925140380859,-0.7960258722305298,5.155383544921875
1766000685437862400,7.2388623046875,0.0814085006713867,0.2682905197143554,-0.0808364003896713,5.17416455078125
1766000685456643300,7.257643310546875,-0.2750821113586426,-0.1046161651611328,0.4303672313690185,5.192945556640625
1766000685475424500,7.276424560546875,-0.8065605163574219,-0.0482435226440429,0.8101016283035278,5.211726806640625
1766000685494205400,7.295205322265625,-6.375170707702637,-2.2911319732666016,2.2947371006011963,5.230507568359375
1766000685512986400,7.313986328125,-0.8065605163574219,-2.3265905380249023,2.2947371006011963,5.24928857421875
1766000685531767600,7.332767578125,1.908015489578247,3.522112846374512,7.240917682647705,5.26806982421875
1766000685550548500,7.351548583984375,2.1929705142974854,-3.658545017242432,0.1727575659751892,5.286850830078125
1766000685569329400,7.370329345703125,1.908015489578247,-6.730449676513672,0.1727575659751892,5.305631591796875
1766000685588110600,7.389110595703125,2.049933433532715,-6.638167381286621,-4.436723709106445,5.324412841796875
1766000685606891500,7.4078916015625,-0.6170639991760254,-3.1437788009643555,-2.621052026748657,5.3431938476562495
1766000685625672400,7.42667236328125,-1.8998723030090328,0.1667184829711914,1.0583263635635376,5.361974609375
1766000685653844200,7.45484423828125,-0.2290129661560058,-2.365968704223633,2.5853641033172607,5.390146484375
1766000685672625200,7.473625244140625,-0.5701355934143066,-2.733628273010254,1.068137764930725,5.408927490234375
1766000685691406000,7.492406005859375,-0.7614927291870117,-1.3803720474243164,1.6209253072738647,5.427708251953125
1766000685710187300,7.511187255859375,-0.6028413772583008,-1.0684304237365725,0.3010390698909759,5.446489501953125
1766000685738358800,7.53935888671875,-1.0440001487731934,-0.7667374610900879,-0.2456014752388,5.4746611328125
1766000685757139700,7.5581396484375,-1.3118667602539062,-0.4055123329162597,0.6790062189102173,5.49344189453125
1766000685775921000,7.5769208984375,-0.7364253997802734,-0.2783436775207519,1.1502125263214111,5.51222314453125
1766000685794701800,7.595701904296875,0.0538797378540039,-0.0875129699707031,0.1766876876354217,5.531004150390625
1766000685813482800,7.614482666015625,0.4816899299621582,0.0972251892089843,-0.7899684906005859,5.5497849121093745
1766000685832264000,7.633263916015625,0.7103638648986816,0.4044351577758789,-0.5275802612304688,5.5685661621093745
1766000685851044900,7.652044921875,0.5822710990905762,0.7713661193847656,0.1391658633947372,5.58734716796875
1766000685869825800,7.67082568359375,0.6325287818908691,0.9925093650817872,0.4747855961322784,5.6061279296875
1766000685888607000,7.68960693359375,0.9246273040771484,1.0742087364196775,-0.2666242122650146,5.6249091796875
1766000685907388000,7.708387939453125,1.43287992477417,1.4499015808105469,-1.307971477508545,5.643690185546875
1766000685926169000,7.727169189453125,1.7653112411499023,1.7058186531066897,-1.69099223613739,5.662471435546875
1766000685944950000,7.745949951171875,1.8907527923583984,1.91173791885376,-1.2221386432647705,5.681252197265625
1766000685963731000,7.76473095703125,1.9423985481262207,2.39379358291626,-0.782671332359314,5.700033203125
1766000685982512000,7.78351220703125,1.925899028778076,2.6790332794189453,-0.8189755082130432,5.718814453125
1766000686001293000,7.80229296875,1.661303997039795,2.6453185081481934,-0.9723780155181884,5.73759521484375
1766000686020074200,7.82107421875,1.767974853515625,2.8852925300598145,-1.2646520137786863,5.75637646484375
1766000686038855200,7.839855224609375,1.894279956817627,3.130131721496582,-1.390239715576172,5.775157470703125
1766000686057636000,7.858635986328125,2.179431438446045,3.4948177337646484,-1.0628972053527832,5.793938232421875
1766000686076417300,7.877417236328125,2.348689079284668,3.623286247253418,-0.8512597680091858,5.812719482421875
1766000686095198200,7.8961982421875,2.3347129821777344,3.5717759132385254,-0.9885879158973694,5.83150048828125
1766000686113979100,7.914979248046875,2.2487387657165527,3.289443016052246,-0.9747180938720704,5.850281494140625
1766000686132760300,7.93376025390625,2.2580575942993164,3.1166296005249023,-0.9830611944198608,5.8690625
1766000686151541200,7.952541259765625,2.273932456970215,2.773163318634033,-0.9612872004508972,5.887843505859375
1766000686170322200,7.971322265625,2.135684013366699,2.1740646362304688,-0.991521656513214,5.90662451171875
1766000686189103400,7.990103271484375,1.8316655158996584,1.689347743988037,-1.094821572303772,5.925405517578125
1766000686207884300,8.00888427734375,1.4684319496154783,1.2423920631408691,-1.4671497344970703,5.9441865234375
1766000686226665500,8.02766552734375,1.079389572143555,0.8073129653930664,-1.6005878448486328,5.9629677734375
1766000686245446400,8.0464462890625,0.6219210624694824,0.4319243431091308,-1.2001343965530396,5.98174853515625
1766000686264227600,8.0652275390625,0.3835363388061523,0.2680740356445312,-0.4468163251876831,6.00052978515625
1766000686292399000,8.093399169921875,-0.402841567993164,0.0835256576538086,0.6138015389442444,6.028701416015625
1766000686311180000,8.112179931640625,-0.8131895065307617,-0.2134218215942382,1.0623879432678225,6.047482177734375
1766000686329961000,8.1309609375,-1.2972917556762695,-0.6689577102661133,1.0317505598068235,6.066263183593749
1766000686348742100,8.1497421875,-2.9756920337677,-2.3149356842041016,2.717046976089477,6.085044433593749
1766000686376913700,8.17791357421875,-1.2972917556762695,-1.781287670135498,7.419870853424072,6.113215820312499
1766000686395694600,8.196694580078125,-1.0531396865844729,5.550694465637207,2.491555690765381,6.131996826171875
1766000686414475800,8.215475830078125,1.077840805053711,-8.682985305786133,2.491555690765381,6.150778076171875
1766000686433256700,8.234256591796875,-1.0531396865844729,-7.242215156555176,-0.4048129320144653,6.169558837890625
