time,seconds_elapsed,z,y,x,t
1766000074820436000,2.22543603515625,-0.0878881737589836,-0.1375972926616668,-0.1232419684529304,0.9953188476562502
1766000074839215600,2.244215576171875,-0.0721584036946296,-0.106595903635025,-0.0975856482982635,1.0140983886718753
1766000074857995000,2.2629951171875,-0.0316886119544506,-0.1099556609988212,-0.075441800057888,1.0328779296875
1766000074876774700,2.281774658203125,0.0049632764421403,-0.1795942485332489,-0.0485637485980987,1.051657470703125
1766000074895554300,2.30055419921875,0.051083568483591,-0.3184132575988769,-0.0326812639832496,1.07043701171875
1766000074914334000,2.319333984375,0.062995433807373,-0.3984365463256836,-0.0183259434998035,1.0892167968750002
1766000074933113600,2.338113525390625,0.0576503649353981,-0.4045451879501343,0.0264199022203683,1.1079963378906252
1766000074951893000,2.35689306640625,0.0926223695278167,-0.2415970265865326,0.1611155867576599,1.1267758789062503
1766000074970672600,2.375672607421875,0.2155589163303375,-0.15042544901371,0.4344775676727295,1.145555419921875
1766000074989452300,2.394452392578125,0.4333322048187256,-0.2982547283172607,0.7843503952026367,1.164335205078125
1766000075008232000,2.41323193359375,0.5669588446617126,-0.523969292640686,0.930499792098999,1.1831147460937501
1766000075027011600,2.432011474609375,0.5180897116661072,-0.8138245940208435,0.9077450633049012,1.2018942871093752
1766000075045791200,2.450791259765625,0.5498546361923218,-1.123533010482788,0.9850194454193116,1.2206740722656253
1766000075064571000,2.46957080078125,0.6436223983764648,-1.187979221343994,1.1641556024551392,1.23945361328125
1766000075083350300,2.488350341796875,0.6062069535255432,-1.0413717031478882,1.288313865661621,1.258233154296875
1766000075102130000,2.5071298828125,0.5292379856109619,-0.7638863921165466,1.3626866340637207,1.2770126953125
1766000075120909600,2.52590966796875,0.5141190886497498,-0.4091266989707947,1.4115557670593262,1.2957924804687502
1766000075139689200,2.544689208984375,0.4632645845413208,0.080481432378292,1.3972004652023315,1.3145720214843752
1766000075158468600,2.563468505859375,0.4669297635555267,0.6181951761245728,1.239139199256897,1.3333513183593753
1766000075177248300,2.582248291015625,0.5500074028968811,0.8981239199638367,0.9033163189888,1.352131103515625
1766000075196028000,2.60102783203125,0.6184242367744446,0.8947641849517822,0.3860665261745453,1.37091064453125
1766000075214807600,2.6198076171875,0.6869937777519226,0.7553343176841736,-0.1937968581914901,1.3896904296875001
1766000075242977000,2.64797705078125,0.8088613152503967,-0.0430659651756286,-1.0299180746078491,1.41785986328125
1766000075261756700,2.666756591796875,0.9450841546058656,-0.8933897614479065,-1.5598431825637815,1.436639404296875
1766000075280536000,2.6855361328125,1.084972262382507,-1.6522364616394043,-2.0271546840667725,1.4554189453125002
1766000075299315700,2.704315673828125,1.2218059301376345,-2.054185628890991,-2.3370158672332764,1.4741984863281252
1766000075318095400,2.723095458984375,1.3619993925094604,-2.0181446075439453,-2.4709479808807373,1.4929782714843753
1766000075336875000,2.741875,1.1999675035476685,-2.0016510486602783,-1.6533055305480957,1.5117578125
1766000075355654700,2.760654541015625,0.5161044001579285,-0.3513999581336975,-1.7478368282318115,1.530537353515625
1766000075374434300,2.779434326171875,0.248087465763092,-0.2124282270669937,-1.8719950914382932,1.5493171386718751
1766000075393214000,2.7982138671875,0.7005855441093445,-0.8782708644866943,-1.7510439157485962,1.5680966796875002
1766000075411993300,2.816993408203125,1.0203732252120972,-1.4805835485458374,-1.4844014644622805,1.5868762207031253
1766000075477722000,2.88272216796875,-0.4450913369655609,0.9999856352806092,0.5908589363098145,1.65260498046875
1766000075496501800,2.901501708984375,-0.8126792311668396,2.927722215652466,1.0444260835647583,1.671384521484375
1766000075515281400,2.920281494140625,-0.8261182308197021,3.763537883758545,1.451414704322815,1.6901643066406251
1766000075534060800,2.939060791015625,-0.9470694661140442,3.656483888626098,1.7751730680465698,1.7089436035156251
1766000075562230300,2.967230224609375,-1.227914571762085,2.7754640579223637,2.069915294647217,1.737113037109375
1766000075581010000,2.986010009765625,-1.3132829666137695,2.2391247749328613,2.1803290843963623,1.7558928222656252
1766000075599789600,3.00478955078125,-1.3274855613708496,2.0547964572906494,2.221256971359253,1.7746723632812502
1766000075618569200,3.0235693359375,-1.3338996171951294,2.1662793159484863,2.189339399337769,1.7934521484375003
1766000075637348600,3.0423486328125,-1.2639555931091309,2.3648102283477783,2.0854923725128174,1.8122314453125
1766000075656128300,3.061128173828125,-1.1387282609939575,2.505767345428467,1.9155192375183103,1.831010986328125
1766000075674908000,3.079907958984375,-1.007086992263794,2.498131513595581,1.6496403217315674,1.849790771484375
1766000075693687600,3.0986875,-0.923398494720459,2.2873830795288086,1.2936588525772097,1.8685703125000002
1766000075712467200,3.11746728515625,-0.940808117389679,1.9721769094467163,0.7968730926513672,1.8873500976562503
1766000075731246800,3.136246826171875,-1.0567196607589722,2.050520420074463,-0.2194531708955764,1.906129638671875
1766000075750026200,3.155026123046875,-1.2147809267044067,1.522733211517334,-1.0189224481582642,1.924908935546875
1766000075768806000,3.173805908203125,-0.6396517753601074,0.6982184648513794,-1.0830632448196411,1.943688720703125
1766000075787585500,3.19258544921875,0.3920988440513611,-0.282372236251831,-1.304349064826965,1.96246826171875
1766000075806365200,3.211365234375,0.3304014801979065,-1.0473276376724243,-1.149800181388855,1.9812480468750002
1766000075825144800,3.230144775390625,-0.2137263119220733,-0.6298015713691711,-0.8202387094497681,2.0000275878906253
1766000075853314300,3.258314208984375,-0.5819250345230103,0.8463531732559204,-0.508544921875,2.028197021484375
1766000075881483500,3.2864833984375,-0.3100902438163757,1.1310161352157593,-0.481361448764801,2.0563662109375
1766000075900263200,3.30526318359375,-0.1530979871749878,0.5221366882324219,-0.5844448804855347,2.07514599609375
1766000075919042800,3.324042724609375,-0.0129045182839035,0.0696385875344276,-0.5835285782814026,2.0939255371093752
1766000075937822500,3.342822509765625,-0.0142789641395211,-0.0360410213470459,-0.481361448764801,2.112705322265625
1766000075956602000,3.36160205078125,-0.0978147238492965,-0.0439822636544704,-0.3486510813236236,2.13148486328125
1766000075975381800,3.3803818359375,-0.0819322392344474,-0.1156061589717865,-0.2776380479335785,2.1502646484375
1766000075994161400,3.399161376953125,-0.0067958706058561,-0.1423314958810806,-0.2333503514528274,2.169044189453125
1766000076012940800,3.41794091796875,-0.040698867291212,-0.0855210721492767,-0.1637117564678192,2.1878237304687502
1766000076031720400,3.436720458984375,-0.1179732605814933,0.0490218997001647,-0.0749836489558219,2.2066032714843753
1766000076050500000,3.4555,-0.1341611742973327,0.1032361462712287,0.0128281600773334,2.2253828125
1766000076069279700,3.47427978515625,-0.1427132785320282,0.1075121983885765,0.0812450125813484,2.24416259765625
1766000076088059400,3.493059326171875,-0.1723402291536331,-0.0016798780998215,0.106595903635025,2.262942138671875
1766000076106839000,3.511839111328125,-0.1996764242649078,-0.0716238990426063,0.1157588735222816,2.281721923828125
1766000076125618700,3.53061865234375,-0.2280816435813903,-0.0372627526521682,0.1498145908117294,2.3005014648437503
1766000076144398300,3.5493984375,-0.2653443813323974,0.0552832633256912,0.2083048969507217,2.31928125
1766000076163177700,3.568177734375,-0.2740492224693298,0.0279470644891262,0.2706131041049957,2.338060546875
1766000076181957400,3.586957275390625,-0.2842811942100525,-0.0340557098388671,0.3488037884235382,2.356840087890625
1766000076200737000,3.605737060546875,-0.3030652999877929,-0.1295033395290374,0.4198168218135834,2.375619873046875
1766000076219516700,3.6245166015625,-0.3409388959407806,-0.3135263621807098,0.4520399272441864,2.3943994140625002
1766000076238296300,3.64329638671875,-0.4004982113838196,-0.4709767401218414,0.4288270771503448,2.41317919921875
1766000076257076000,3.662075927734375,-0.4676933586597442,-0.5772672295570374,0.3610210716724396,2.431958740234375
1766000076275855600,3.680855712890625,-0.5533671379089355,-0.5983420610427856,0.238542690873146,2.450738525390625
1766000076294635300,3.69963525390625,-0.6424006819725037,-0.5273290276527405,0.0823140293359756,2.46951806640625
1766000076313414700,3.71841455078125,-0.6882155537605286,-0.3162752389907837,-0.0949894711375236,2.48829736328125
1766000076332194300,3.7371943359375,-0.7124974131584167,0.0157297682017087,-0.2319758981466293,2.5070771484375003
1766000076350974000,3.755973876953125,-0.7520508766174316,0.2435823380947113,-0.3196350038051605,2.525856689453125
1766000076369753600,3.774753662109375,-0.8003092408180237,0.2438877671957016,-0.3904953002929687,2.544636474609375
1766000076388533200,3.793533203125,-0.8314633369445801,-0.0355828739702701,-0.4630354940891266,2.563416015625
1766000076407313000,3.81231298828125,-0.8229112029075623,-0.2677114903926849,-0.5296197533607483,2.58219580078125
1766000076426092500,3.831092529296875,-0.7373901605606079,-0.2816086709499359,-0.5867356061935425,2.6009753417968753
1766000076444872200,3.8498720703125,-0.6248382925987244,-0.1017089858651161,-0.6568323373794556,2.6197548828125
1766000076463651600,3.868651611328125,-0.6031526327133179,0.231670469045639,-0.6592758297920227,2.638534423828125
1766000076482431200,3.88743115234375,-0.6214785575866699,0.3116937577724457,-0.6073523163795471,2.65731396484375
1766000076501211000,3.9062109375,-0.5472584962844849,0.0734564885497093,-0.5433642268180847,2.67609375
1766000076519990500,3.924990478515625,-0.4043161273002624,-0.2466366589069366,-0.4236347377300262,2.6948732910156252
1766000076538770200,3.943770263671875,-0.0327576249837875,-0.5290089249610901,-0.1627954691648483,2.7136530761718753
1766000076557549800,3.9625498046875,0.3969857394695282,-0.8200859427452087,0.2446513473987579,2.7324326171875
1766000076576329500,3.98132958984375,0.8050433993339539,-1.374598503112793,0.7935133576393127,2.75121240234375
1766000076604498700,4.009498779296875,1.5779401063919067,-1.9679008722305296,1.7426445484161377,2.779381591796875
1766000076623278300,4.0282783203125,1.8083888292312624,-1.9385793209075928,2.114202976226806,2.7981611328125005
1766000076642058000,4.04705810546875,1.8392374515533447,-1.7513493299484253,2.3095269203186035,2.81694091796875
1766000076660837600,4.065837646484375,1.8097633123397827,-1.471267819404602,2.3590071201324463,2.8357204589843747
1766000076679617300,4.0846171875,1.8015166521072388,-1.2563961744308472,2.285856008529663,2.8545000000000003
1766000076698397000,4.10339697265625,1.8758894205093384,-0.9465349912643432,2.092822790145874,2.87327978515625
1766000076717176600,4.122176513671875,1.8215223550796509,-0.8712459206581116,1.7061452865600586,2.8920593261718754
1766000076735956000,4.1409560546875,1.7989203929901123,-0.8246674537658691,1.1183407306671145,2.9108388671875
1766000076754735600,4.159735595703125,1.816482782363892,-1.1368193626403809,0.9630283117294312,2.9296184082031247
1766000076773515300,4.178515380859375,1.5319725275039673,-1.0558797121047974,-0.6655371785163879,2.9483981933593753
1766000076792295000,4.197294921875,1.8557308912277224,-1.8434371948242188,-2.149022340774536,2.967177734375
1766000076811074600,4.216074462890625,2.626642227172852,-2.983768939971924,-3.4350454807281494,2.9859572753906254
1766000076839244000,4.244244140625,2.913137674331665,-4.811934471130371,-3.7843072414398193,3.014126953125
1766000076858023700,4.263023681640625,2.659628868103028,-4.052018642425537,-3.673130035400391,3.0329064941406254
1766000076876803300,4.28180322265625,2.4818673133850098,-3.280343770980835,-3.255909204483032,3.05168603515625
1766000076895583000,4.3005830078125,2.3612215518951416,-1.763413906097412,-3.107163667678833,3.0704658203124997
