time,seconds_elapsed,z,y,x,t
1766000085092906800,12.49790673828125,-0.3578903973102569,-0.167529672384262,-0.1229365393519401,11.26778955078125
1766000085111686400,12.516686279296875,-0.317267894744873,-0.1641699075698852,-0.0474947355687618,11.286569091796876
1766000085130466300,12.53546630859375,-0.2932914495468139,-0.1679878085851669,0.0471893027424812,11.30534912109375
1766000085149246000,12.554245849609377,-0.2697731554508209,-0.0534506663680076,0.1765399277210235,11.324128662109377
1766000085168025600,12.573025634765624,-0.1640935540199279,-0.0012217295588925,0.3773617148399353,11.342908447265625
1766000085186805200,12.59180517578125,-0.0109192077070474,-0.0662788301706314,0.6284271478652954,11.36168798828125
1766000085214975000,12.61997509765625,0.1700494885444641,-0.1551596522331237,0.916602611541748,11.38985791015625
1766000085233754600,12.638754638671877,0.1874591261148452,-0.0601701810956001,0.9471458196640016,11.408637451171877
1766000085252534300,12.6575341796875,0.2519053518772125,0.0369573198258876,1.0328196287155151,11.427416992187501
1766000085271314200,12.676314208984374,0.6074286699295044,-0.0007635809597559,1.3261874914169312,11.446197021484375
1766000085290093800,12.69509375,0.9492074847221376,0.1450803875923156,1.5961896181106567,11.4649765625
1766000085308873500,12.71387353515625,1.0506110191345217,0.5564978122711182,1.6436843872070312,11.48375634765625
1766000085327653400,12.7326533203125,1.0399209260940552,1.14659321308136,1.4689770936965942,11.5025361328125
1766000085346433000,12.75143310546875,0.9530254006385804,1.6798781156539917,1.1395682096481323,11.521315917968751
1766000085365212700,12.770212646484374,0.9143882393836976,2.0016510486602783,0.6385064125061035,11.540095458984375
1766000085383992300,12.788992431640626,0.9800561666488647,1.76875901222229,-0.0090102553367614,11.558875244140626
1766000085402772200,12.807772216796875,0.9879974126815796,0.7238747477531433,-0.6979129910469055,11.577655029296876
1766000085421551900,12.8265517578125,0.9224821925163268,-0.767857015132904,-1.3463460206985474,11.5964345703125
1766000085440331500,12.84533154296875,0.8826232552528381,-2.0883939266204834,-1.8817689418792725,11.615214355468751
1766000085459111200,12.864111083984374,0.8658244609832764,-2.9665122032165527,-2.276693105697632,11.633993896484375
1766000085477891000,12.88289111328125,0.8684206604957581,-3.201542377471924,-2.5014913082122803,11.65277392578125
1766000085496670700,12.901670654296876,0.8306997418403625,-2.777143955230713,-2.5219552516937256,11.671553466796876
1766000085515450400,12.920450439453123,0.6892845630645752,-2.081674337387085,-2.444375514984131,11.690333251953124
1766000085534230000,12.93922998046875,0.4310414493083954,-1.3904809951782229,-2.304487466812134,11.709112792968751
1766000085553010000,12.958010009765625,0.0261908266693353,-1.5160136222839355,-1.384066820144653,11.727892822265625
1766000085571789600,12.97678955078125,-0.3413970470428467,0.1824958473443985,-1.190422773361206,11.74667236328125
1766000085590569200,12.9955693359375,-0.2880991101264953,0.2133445292711258,-0.7528908252716064,11.7654521484375
1766000085609349000,13.01434912109375,-0.2343430072069168,0.1597411334514618,-0.3316995799541473,11.78423193359375
1766000085628128800,13.033128662109377,-0.2402989268302917,0.3958403766155243,0.1331685185432434,11.803011474609377
1766000085646908400,13.051908447265625,-0.2103665620088577,0.7783944606781006,0.5082395076751709,11.821791259765625
1766000085665688300,13.070688232421874,-0.1474474817514419,0.9468404054641724,0.7389936447143555,11.840571044921875
1766000085684468000,13.089468017578126,-0.1538615673780441,0.9578359723091124,0.953559935092926,11.859350830078126
1766000085703247600,13.10824755859375,-0.2570977210998535,0.9323323965072632,1.1846195459365845,11.87813037109375
1766000085722027300,13.12702734375,-0.3811032772064209,0.8998038172721863,1.4158318042755127,11.89691015625
1766000085740807200,13.14580712890625,-0.5148826241493225,1.0303761959075928,1.6265802383422852,11.915689941406251
1766000085759586800,13.1645869140625,-0.6121628880500793,1.3058761358261108,1.787084937095642,11.9344697265625
1766000085778366500,13.183366455078126,-0.6347648501396179,1.517388105392456,1.904829144477844,11.953249267578126
1766000085797146000,13.20214599609375,-0.617355227470398,1.5764893293380735,1.978590965270996,11.97202880859375
1766000085815926000,13.220926025390623,-0.6109411120414734,1.4679080247879028,1.993404507637024,11.990808837890624
1766000085834705700,13.23970556640625,-0.5918515920639038,1.279914379119873,1.9698861837387085,12.009588378906251
1766000085853485600,13.258485595703124,-0.5455785989761353,1.0338886976242063,1.9246822595596316,12.028368408203125
1766000085872265200,13.27726513671875,-0.4967094361782074,0.7913753390312195,1.8477132320404053,12.04714794921875
1766000085891044900,13.296044921875,-0.4609738290309906,0.5871937870979309,1.7342450618743896,12.065927734375
1766000085909824500,13.314824462890623,-0.4102720618247986,0.3794997334480285,1.5879429578781128,12.084707275390624
1766000085928604400,13.3336044921875,-0.3438405096530914,0.1314886510372162,1.4051417112350464,12.103487304687501
1766000085947384000,13.352384033203125,-0.2957349121570587,-0.1751654744148254,1.1908808946609497,12.122266845703125
1766000085966163700,13.371163818359374,-0.2789361178874969,-0.4738783538341522,0.9640973210334778,12.141046630859375
1766000085984943600,13.389943603515626,-0.2847393453121185,-0.7736602425575256,0.7234166264533997,12.159826416015626
1766000086003723300,13.40872314453125,-0.2902371287345886,-1.0639737844467163,0.4935787320137024,12.17860595703125
1766000086022503000,13.4275029296875,-0.3267363011837005,-1.2162318229675293,0.2499964088201522,12.197385742187501
1766000086041282800,13.44628271484375,-0.4029416739940643,-1.17499840259552,-0.0080939587205648,12.216165527343751
1766000086060062500,13.4650625,-0.4916698038578033,-0.9616538882255554,-0.208610326051712,12.2349453125
1766000086078842000,13.483842041015626,-0.6194932460784912,-0.1858556121587753,-0.537255585193634,12.253724853515626
1766000086097622000,13.5026220703125,-0.7031817436218262,0.393702358007431,-0.8176425099372864,12.2725048828125
1766000086116401700,13.521401611328123,-0.3992764949798584,0.6682860851287842,-0.8002328872680664,12.291284423828124
1766000086135181300,13.540181396484376,-0.0176387205719947,0.8449786901473999,-0.8539889454841614,12.310064208984377
1766000086153961000,13.5589609375,0.2720639109611511,0.7747292518615723,-0.9631810188293456,12.32884375
1766000086172740900,13.577740966796876,0.2603047490119934,0.1513417512178421,-0.8437569737434387,12.347623779296876
1766000086191520500,13.5965205078125,0.2815323173999786,-0.3588830530643463,-0.5122101306915283,12.3664033203125
1766000086210300400,13.615300537109375,0.3284161686897278,-0.7840449213981628,-0.0988073796033859,12.385183349609376
1766000086229080000,13.634080078125,0.344909518957138,-0.7927497625350952,0.1188132017850875,12.403962890625001
1766000086247859700,13.652859619140624,0.3276526033878326,-0.5991056561470032,0.2359465211629867,12.422742431640625
1766000086266639600,13.6716396484375,0.2867246568202972,-0.3457494676113128,0.3115410506725311,12.4415224609375
1766000086285419300,13.690419189453126,0.2047160565853119,-0.1055268943309784,0.3501782417297363,12.460302001953126
1766000086304199000,13.709198974609375,0.1767689883708953,0.0045814858749508,0.3730856776237488,12.479081787109376
1766000086322978600,13.727978515625,0.1133917719125747,0.0641408041119575,0.3791943192481994,12.497861328125001
1766000086341758500,13.746758544921876,0.0381026901304721,0.2012799382209777,0.3669770061969757,12.516641357421877
1766000086360538000,13.7655380859375,0.05337430909276,0.4827359020709991,0.3376555144786834,12.5354208984375
1766000086379318000,13.784318115234376,0.2380081862211227,0.4773908257484436,0.1632536053657531,12.554200927734376
1766000086398097700,13.80309765625,0.6207149624824524,0.0728456228971481,-0.1808159798383712,12.57298046875
1766000086416877300,13.821877197265623,1.0619120597839355,-0.5174024701118469,-0.7573196291923523,12.591760009765624
1766000086435657200,13.8406572265625,1.2520437240600586,-1.0030399560928345,-1.5839723348617554,12.610540039062501
1766000086454436900,13.859436767578124,1.2540290355682373,-1.6490294933319092,-2.337321281433105,12.629319580078125
1766000086473216500,13.878216552734376,1.0443496704101562,-3.721235513687134,-1.7996076345443726,12.648099365234376
1766000086491996200,13.89699609375,1.1521673202514648,-2.617861032485962,-2.56471586227417,12.66687890625
1766000086510776000,13.915776123046877,1.2670098543167114,-3.024544239044189,-2.478431224822998,12.685658935546877
1766000086529555700,13.9345556640625,1.197218656539917,-3.2614071369171143,-2.148869514465332,12.704438476562501
1766000086548335600,13.953335693359374,0.7016545534133911,-2.5447099208831787,-1.6985095739364624,12.723218505859375
1766000086567115300,13.972115234375,0.2293033599853515,-1.3095413446426392,-1.1015418767929075,12.741998046875
1766000086585895000,13.99089501953125,-0.3131445646286011,0.0181732270866632,-0.3911061882972717,12.76077783203125
1766000086604674800,14.0096748046875,-0.5927678942680359,1.012661099433899,0.2037234008312225,12.7795576171875
1766000086623454500,14.028454345703125,-0.7364738583564758,1.6481131315231323,0.6832522749900818,12.798337158203125
1766000086642234000,14.047234130859374,-0.7467058300971985,1.6965242624282837,1.049312949180603,12.817116943359375
1766000086661014000,14.066013916015624,-0.6767618060112,1.4534000158309937,1.2719731330871582,12.835896728515625
1766000086679793700,14.084793701171876,-0.6990583539009094,1.3646719455718994,1.2927426099777222,12.854676513671876
1766000086698573300,14.1035732421875,-0.8754456043243408,1.846033334732056,0.9085086584091188,12.8734560546875
1766000086717353200,14.122353271484377,-1.118722438812256,2.201862096786499,0.304974228143692,12.892236083984377
1766000086736132900,14.1411328125,-1.259221434593201,2.14612078666687,-0.1374445706605911,12.911015625000001
1766000086754912800,14.159912841796874,-0.9116393327713012,1.5931353569030762,-0.2945895493030548,12.929795654296875
1766000086773692400,14.1786923828125,-0.2256381809711456,0.7324268817901611,-0.234419360756874,12.9485751953125
1766000086792472000,14.19747216796875,0.1879172772169113,-0.0444404110312461,-0.3274235129356384,12.96735498046875
1766000086811252000,14.216251953125,0.0332157723605632,-0.3397935330867767,-0.3811796307563782,12.986134765625
1766000086830031600,14.235031494140625,-0.067576915025711,-0.2939786612987518,-0.3491092324256897,13.004914306640625
1766000086848811300,14.253811279296874,-0.0342847853899002,-0.1064431890845298,-0.233961209654808,13.023694091796875
1766000086867591200,14.272591064453126,0.0519998632371425,0.0658206790685653,-0.1696676909923553,13.042473876953126
1766000086886370800,14.291370849609375,0.1225547492504119,-0.0068722288124263,-0.1936441361904144,13.061253662109376
1766000086905150500,14.310150390625,0.2019671648740768,-0.2721402645111084,-0.2429714649915695,13.080033203125
1766000086923930400,14.328930419921877,0.2801578640937805,-0.5119046568870544,-0.2637408673763275,13.098813232421877
1766000086942710000,14.3477099609375,0.2853502035140991,-0.5299251675605774,-0.2629773020744324,13.1175927734375
1766000086961489700,14.36648974609375,0.2546542584896087,-0.3280344009399414,-0.2695440948009491,13.13637255859375
1766000086980269600,14.38526953125,0.2047160565853119,0.0836884751915931,-0.2820668220520019,13.15515234375
1766000087008439000,14.41343896484375,0.048334676772356,0.7878628373146057,-0.2800815105438232,13.183321777343751
1766000087027219000,14.432218994140625,-0.0232892204076051,1.042593479156494,-0.2996291816234588,13.202101806640625
1766000087045998600,14.45099853515625,-0.0348956510424613,1.0235038995742798,-0.2863428592681885,13.22088134765625
1766000087064778500,14.469778564453126,-0.0556650534272193,0.6693550944328308,-0.1113301068544387,13.239661376953126
1766000087083558100,14.48855810546875,0.0500145554542541,0.1502727419137954,0.1432477980852127,13.25844091796875
