time,seconds_elapsed,z,y,x,t
1766000079954315800,7.359315673828125,1.2999029159545898,1.6813201904296875,0.8003280758857727,6.140935791015625
1766000079973095400,7.378095458984375,1.3630993366241455,3.5267724990844727,-2.5856411457061768,6.159715576171875
1766000079991875000,7.396875,1.5035185813903809,4.966736793518066,-2.5284547805786133,6.1784951171874996
1766000080010654700,7.41565478515625,1.379279375076294,2.549715995788574,-0.8225786685943604,6.19727490234375
1766000080038824200,7.44382421875,1.8541256189346316,0.1863365173339843,-1.1022378206253052,6.2254443359375
1766000080057603800,7.462603759765625,2.171889305114746,1.0306825637817385,-1.35686457157135,6.244223876953125
1766000080076383500,7.481383544921875,2.117154121398926,3.0141916275024414,-2.9666824340820312,6.263003662109375
1766000080095163100,7.5001630859375,3.167137861251831,3.018275260925293,-5.099236011505127,6.281783203125
1766000080113942800,7.51894287109375,4.934829711914063,1.3080205917358398,-4.290788650512695,6.30056298828125
1766000080132722400,7.537722412109375,4.48252534866333,0.7159423828125,-3.0856852531433105,6.319342529296875
1766000080151502000,7.556502197265625,3.7287793159484863,1.5968132019042969,-1.896452069282532,6.338122314453125
1766000080170281700,7.57528173828125,3.4527390003204346,2.355134963989258,-0.5344042778015137,6.35690185546875
1766000080189061400,7.594061279296875,2.992551803588867,2.665699005126953,0.5263253450393677,6.375681396484375
1766000080207841000,7.612841064453125,3.524347305297852,3.0852746963500977,1.9579428434371948,6.394461181640625
1766000080226620700,7.63162060546875,2.781057119369507,4.034393310546875,3.057225227355957,6.41324072265625
1766000080245400300,7.650400390625,-0.2519989013671875,4.215771675109863,0.6999166011810303,6.4320205078125
1766000080264180000,7.669179931640625,-0.2691004276275635,2.3323936462402344,-1.8089519739151,6.450800048828125
1766000080282959600,7.687959716796875,-0.3775627613067627,0.744257926940918,-2.330679178237915,6.469579833984375
1766000080301739300,7.7067392578125,1.4782366752624512,-2.0540642738342285,-0.7067489624023438,6.488359375
1766000080320519000,7.725518798828125,-6.46306037902832,-2.7953834533691406,-3.7203354835510254,6.5071389160156246
1766000080339298600,7.744298583984375,-1.6257199048995972,5.7324419021606445,0.4635407328605652,6.525918701171875
1766000080358078200,7.763078125,-0.8891711235046387,4.56108283996582,8.664705276489258,6.5446982421875
1766000080376857900,7.78185791015625,1.5246232748031616,-0.9847469329833984,7.325745582580566,6.56347802734375
1766000080395637800,7.8006376953125,0.6807164549827576,-0.8994235992431641,4.269458770751953,6.5822578125
1766000080414417200,7.819417236328125,-0.786646842956543,-2.1638898849487305,1.0024101734161377,6.601037353515625
1766000080433197000,7.838197021484375,-1.3293172121047974,-4.147490501403809,-0.6215912699699402,6.619817138671875
1766000080451976700,7.856976806640625,-2.436456680297852,-4.598330974578857,0.5032541751861572,6.638596923828125
1766000080470756400,7.87575634765625,-3.5129411220550537,-4.1646409034729,1.771478295326233,6.65737646484375
1766000080489536000,7.894535888671875,-3.931222438812256,-4.03513240814209,0.8067076206207275,6.676156005859375
1766000080508315600,7.913315673828125,-3.683387279510498,-4.465126037597656,-1.2124011516571045,6.694935791015625
1766000080527095300,7.93209521484375,-3.1675350666046143,-5.238527297973633,-1.5287697315216064,6.71371533203125
1766000080545875000,7.950875,-3.1384823322296143,-5.277002334594727,-0.5008261203765869,6.7324951171875
1766000080564654600,7.969654541015625,-3.2389824390411377,-4.562833309173584,0.447851300239563,6.751274658203125
1766000080583434200,7.988434326171875,-3.1957664489746094,-3.3568758964538574,0.947973370552063,6.770054443359375
1766000080602214000,8.0072138671875,-2.9381682872772217,-2.036620616912842,1.1226611137390137,6.7888339843750005
1766000080620993500,8.02599365234375,-2.961264371871948,-1.0371780395507812,0.2264511436223983,6.80761376953125
1766000080639773200,8.044773193359376,-2.850780725479126,-0.7607765197753906,-1.2850816249847412,6.826393310546876
1766000080658552800,8.063552734375,-2.4517548084259038,-1.072509765625,-2.2063469886779785,6.845172851562499
1766000080686722300,8.091722412109375,-1.9339442253112795,-0.7318153381347656,-2.7169508934021,6.873342529296875
1766000080705502000,8.110501953125,-1.779261827468872,0.0398530960083007,-2.4081661701202397,6.8921220703125
1766000080724281600,8.129281494140624,-1.7547674179077148,0.5040225982666016,-1.9235434532165527,6.910901611328125
1766000080743061200,8.148061279296876,-1.795304298400879,0.2949132919311523,-1.7127398252487185,6.929681396484376
1766000080761841000,8.1668408203125,-1.627854824066162,0.1045083999633789,-1.7689759731292725,6.9484609375
1766000080780620500,8.18562060546875,-1.619159698486328,0.246342658996582,-1.8663654327392576,6.967240722656252
1766000080799400200,8.204400146484375,-1.5273404121398926,0.5666408538818359,-1.5872129201889038,6.986020263671875
1766000080818179800,8.223179931640624,-1.530447006225586,0.7383003234863281,-1.0431816577911377,7.004800048828125
1766000080836959500,8.24195947265625,-1.096433162689209,0.4382619857788086,-0.1189909055829048,7.0235795898437505
1766000080855739100,8.2607392578125,-1.3267626762390137,0.0815305709838867,0.4175522923469543,7.042359375
1766000080883908600,8.28890869140625,-0.3984699249267578,1.4536924362182615,-1.983333945274353,7.070528808593751
1766000080902688500,8.3076884765625,1.3843050003051758,5.851503372192383,-0.979293942451477,7.089308593750001
1766000080930858000,8.33585791015625,5.472944259643555,6.144288063049316,0.956534206867218,7.117478027343751
1766000080949637600,8.3546376953125,5.860087394714356,4.9597272872924805,-1.5470643043518066,7.1362578125
1766000080968417300,8.373417236328125,7.3469038009643555,5.899980545043945,-1.6613190174102783,7.155037353515626
1766000080987197000,8.392197021484375,5.447920322418213,5.460811614990234,1.453575611114502,7.173817138671875
1766000081005976600,8.4109765625,4.031655311584473,5.008671760559082,0.506109893321991,7.192596679687501
1766000081024756200,8.429756103515626,3.386613130569458,4.381992340087891,-1.3036972284317017,7.2113762207031264
1766000081043536000,8.448535888671875,2.711247205734253,3.213503837585449,-1.8219283819198608,7.230156005859376
1766000081062315500,8.4673154296875,1.7344043254852295,1.9222984313964844,-1.5864741802215576,7.248935546875002
1766000081081095200,8.48609521484375,0.9295265674591064,1.195450782775879,0.0598670020699501,7.267715332031251
1766000081099874800,8.504874755859374,3.6056840419769287,-0.2299146652221679,3.0975115299224854,7.286494873046875
1766000081118654500,8.523654541015626,-7.015597820281982,-2.527195453643799,-0.5293172597885132,7.3052746582031265
1766000081137434400,8.542434326171875,-3.5094399452209477,2.304203987121582,1.4680099487304688,7.324054443359376
1766000081156214000,8.561214111328125,-5.297132968902588,5.239418983459473,5.234299659729004,7.342834228515626
1766000081174993700,8.57999365234375,-3.1546339988708496,-0.0327444076538085,2.878713607788086,7.361613769531251
1766000081193773300,8.598773193359374,5.552070140838623,-1.7591285705566406,-1.082540512084961,7.380393310546875
1766000081212553000,8.617552978515626,4.719598770141602,0.7349376678466797,-4.401297569274902,7.3991730957031265
1766000081231332600,8.63633251953125,2.40883207321167,-3.0446462631225586,-9.51412868499756,7.41795263671875
1766000081250112300,8.6551123046875,-1.523006558418274,-7.906601905822754,-5.903100490570068,7.436732421875
1766000081268892000,8.673891845703125,-4.876859188079834,-6.537807941436768,5.171276569366455,7.4555119628906255
1766000081287671600,8.692671630859374,-6.363865375518799,-5.614326000213623,9.881854057312012,7.474291748046875
1766000081306451200,8.711451171875,-5.892353534698486,-6.142194747924805,4.96954345703125,7.493071289062501
1766000081325230800,8.73023095703125,-5.3380513191223145,-6.046145915985107,0.0906219035387039,7.51185107421875
1766000081344010500,8.749010498046875,-3.3162941932678223,-4.089507102966309,-4.385108470916748,7.530630615234376
1766000081362790100,8.7677900390625,-1.7835171222686768,-1.508806228637695,-6.437824726104736,7.549410156250001
1766000081381569800,8.78656982421875,-1.1143962144851685,-0.3854227066040039,-4.020533561706543,7.568189941406251
1766000081400349700,8.805349609375,-1.8838069438934328,-0.820307731628418,0.3125451505184173,7.586969726562501
1766000081419129300,8.82412939453125,-2.841841220855713,-0.8415861129760742,3.4495270252227783,7.60574951171875
1766000081437909000,8.842908935546875,-3.968573570251465,-1.3848958015441897,4.550893783569336,7.624529052734376
1766000081456688600,8.861688720703125,-5.14122486114502,-3.288475513458252,4.4893059730529785,7.6433088378906255
1766000081475468300,8.88046826171875,-10.959102630615234,-4.759190559387207,2.4093403816223145,7.662088378906251
1766000081494248000,8.899248046875,-4.123598098754883,-3.8304057121276855,0.3879488408565521,7.680868164062501
1766000081513027600,8.918027587890625,7.602330207824707,6.055258750915527,-0.4321250319480896,7.699647705078126
1766000081531807200,8.93680712890625,10.394264221191406,-2.3284828662872314,-8.83975887298584,7.71842724609375
1766000081559976700,8.964976806640625,-0.0744898319244384,-0.8265600204467773,-6.965066432952881,7.746596923828125
1766000081578756400,8.98375634765625,-3.655606269836426,-4.786767959594727,1.180204153060913,7.765376464843751
1766000081597536300,9.002536376953126,-3.9629037380218506,-6.833315849304199,5.974569797515869,7.7841564941406265
1766000081616316000,9.02131591796875,-3.313223361968994,-5.9683332443237305,6.068629741668701,7.80293603515625
1766000081635095600,9.040095458984377,-1.8473894596099851,-1.5250816345214844,4.414576530456543,7.8217155761718775
1766000081653875200,9.058875244140625,-1.0162938833236694,4.036246299743652,2.4985575675964355,7.840495361328125
1766000081672654800,9.07765478515625,-0.5556031465530396,5.288920402526856,-1.1194865703582764,7.859274902343751
1766000081691434500,9.0964345703125,1.588185429573059,2.1959924697875977,-4.746964454650879,7.878054687500001
1766000081710214100,9.115214111328124,4.289950847625732,-1.565016746520996,-6.471224308013916,7.896834228515624
1766000081728993800,9.133993896484377,6.683039665222168,-0.8853521347045898,-7.659786224365234,7.915614013671878
1766000081747773400,9.1527734375,6.256694316864014,1.7080059051513672,-6.678549289703369,7.934393554687501
1766000081766553000,9.171552978515624,4.016478061676025,2.4450178146362305,-3.226461887359619,7.953173095703125
1766000081785332700,9.190332763671876,2.0460636615753174,0.7384605407714844,-0.6600694060325623,7.9719528808593765
1766000081804112600,9.209112548828124,1.7309508323669434,0.3507013320922851,1.8256478309631348,7.990732666015624
1766000081822892300,9.227892333984377,3.2322583198547363,2.936997413635254,5.677884578704834,8.009512451171878
1766000081841672000,9.246671875,2.919540405273437,5.539339065551758,8.57047176361084,8.028291992187501
1766000081860451600,9.26545166015625,0.7954597473144531,4.964280128479004,4.792110443115234,8.047071777343751
1766000081879231200,9.284231201171876,-4.329930305480957,-1.2073049545288086,-0.7037092447280884,8.065851318359377
1766000081898011000,9.303010986328124,-1.2547011375427246,4.320667266845703,-5.407068252563477,8.084631103515624
1766000081916790500,9.32179052734375,1.165594220161438,9.129877090454102,-1.691422700881958,8.10341064453125
1766000081935570200,9.340570068359376,0.1161489486694336,2.988974571228028,1.2615190744400024,8.122190185546877
1766000081963740000,9.368739990234374,-0.5350213050842285,-1.7228422164916992,-1.26314115524292,8.150360107421875
1766000081982519600,9.38751953125,0.9176750779151917,-3.563512325286865,1.5118780136108398,8.1691396484375
