time,seconds_elapsed,z,y,x,t
1766000076914362400,4.3193623046875,2.111225128173828,-0.3981311321258545,-2.7696609497070312,3.0892451171875
1766000076933142000,4.33814208984375,1.1656063795089722,-0.296727567911148,-2.2365286350250244,3.10802490234375
1766000076951921700,4.356921630859375,0.1118646115064621,-0.3860665261745453,-1.3923135995864868,3.1268044433593754
1766000076970701300,4.375701416015625,-0.7225766777992249,0.6365211009979248,-0.4650208055973053,3.145584228515625
1766000076989481000,4.39448095703125,-1.335884928703308,2.37702751159668,0.2802342176437378,3.1643637695312505
1766000077008260600,4.413260498046875,-1.3364957571029663,3.464519500732422,0.8877392411231995,3.183143310546875
1766000077027040300,4.432040283203125,-1.1784344911575315,3.445124626159668,1.3703224658966064,3.201923095703125
1766000077045820000,4.45081982421875,-1.023885726928711,2.6920809745788574,1.7110322713851929,3.2207026367187503
1766000077064599300,4.469599365234375,-0.8537598848342896,1.7988440990447998,1.9819507598876955,3.239482177734375
1766000077083379000,4.48837890625,-0.8209258913993835,1.204625368118286,2.1494803428649902,3.2582617187500005
1766000077102158600,4.50715869140625,-0.8661298751831055,1.053130865097046,2.2308781147003174,3.27704150390625
1766000077120938200,4.525938232421875,-0.9206495881080629,1.1820234060287476,2.243400812149048,3.2958210449218748
1766000077139718000,4.5447177734375,-0.9376010894775392,1.4146101474761963,2.204458236694336,3.3146005859375003
1766000077158497500,4.56349755859375,-0.9841794967651368,1.5373939275741575,2.1022911071777344,3.33338037109375
1766000077177277200,4.582277099609375,-1.073060393333435,1.564424753189087,1.936594009399414,3.3521599121093755
1766000077196056800,4.601056884765625,-1.1208604574203491,1.5070034265518188,1.716988205909729,3.370939697265625
1766000077214836200,4.619836181640625,-1.1061997413635254,1.360701322555542,1.4917317628860474,3.3897189941406247
1766000077233616000,4.638615966796875,-1.022205829620361,1.2418880462646484,1.316413640975952,3.4084987792968753
1766000077252395500,4.6573955078125,-0.936073899269104,1.4361430406570437,1.1076505184173584,3.4272783203125
1766000077271175200,4.676175048828125,-0.8268818259239197,1.6435316801071167,0.8743002414703369,3.4460578613281254
1766000077289954800,4.694954833984375,-0.7434988021850586,1.5331178903579712,0.6378955245018005,3.464837646484375
1766000077308734500,4.713734375,-0.7250201106071472,1.3895646333694458,0.416762501001358,3.4836171874999997
1766000077327514000,4.73251416015625,-0.6860775351524353,1.271056890487671,0.2460257858037948,3.5023969726562503
1766000077346293800,4.751293701171875,-0.5518399477005005,1.8258748054504397,-0.625067412853241,3.521176513671875
1766000077365073400,4.770073486328125,-0.5826886296272278,1.0015127658843994,-1.206916093826294,3.5399562988281255
1766000077383853000,4.78885302734375,-0.3534616231918335,0.5256491303443909,-1.3504693508148191,3.55873583984375
1766000077402632700,4.8076328125,0.0603992566466331,0.0006108647794462,-1.303585410118103,3.5775156249999998
1766000077421412400,4.826412353515625,-0.1934150606393814,-0.3396408259868622,-0.7418952584266663,3.5962951660156253
1766000077440191700,4.845191650390625,-0.4588358104228973,-0.1701258420944214,-0.5181660652160645,3.615074462890625
1766000077458971400,4.863971435546875,-0.1584430485963821,-0.3362810611724853,-0.3736965358257293,3.6338542480468754
1766000077477751000,4.8827509765625,-0.0300087314099073,-0.6021599769592285,-0.3066541254520416,3.6526337890625
1766000077496530700,4.90153076171875,0.0713948234915733,-0.7308996915817261,-0.3669770061969757,3.6714135742187497
1766000077515310300,4.920310302734375,0.0263435430824756,-0.7116574645042419,-0.4046979248523712,3.690193115234375
1766000077534090000,4.939090087890625,-0.1103374511003494,-0.2232710719108581,-0.3718639314174652,3.708972900390625
1766000077552869600,4.95786962890625,-0.1928042024374008,0.4825831651687622,-0.2974911332130432,3.7277524414062504
1766000077571649300,4.976649169921875,-0.2749654948711395,0.8964440822601318,-0.2156352698802948,3.746531982421875
1766000077590429000,4.995428955078125,-0.3227656781673431,0.8101593852043152,-0.1922696828842163,3.7653117675781247
1766000077609208600,5.01420849609375,-0.312228262424469,0.5248855352401733,-0.2005163580179214,3.78409130859375
1766000077627988200,5.03298828125,-0.2822958827018738,0.2518289983272552,-0.2203694730997085,3.80287109375
1766000077646767900,5.051767822265625,-0.2491564750671386,0.086284652352333,-0.2151771187782287,3.8216506347656254
1766000077665547300,5.07054736328125,-0.2332739830017089,-0.0280997790396213,-0.1379027217626571,3.84043017578125
1766000077684327000,5.089326904296875,-0.128052532672882,-0.3220784664154053,-0.0070249447599053,3.8592097167968755
1766000077703106600,5.1081064453125,0.057192213833332,-0.5007563829421997,0.2295324355363845,3.8779892578125
1766000077721886200,5.12688623046875,0.2806160151958465,-0.7063124179840088,0.601396381855011,3.89676904296875
1766000077740665900,5.145665771484375,0.6049851775169373,-0.791528046131134,1.0610721111297607,3.9155485839843753
1766000077759445500,5.164445556640625,0.9974658489227296,-0.8940005898475647,1.3901755809783936,3.934328369140625
1766000077778225200,5.18322509765625,1.342298984527588,-1.393382549285889,1.4217877388000488,3.9531079101562505
1766000077797004800,5.2020048828125,1.648647665977478,-1.5754202604293823,1.117577075958252,3.9718876953125
1766000077815784400,5.220784423828125,1.647120475769043,-1.7635666131973269,0.3246746361255646,3.990667236328125
1766000077834564000,5.239564208984375,1.002810835838318,-2.919780969619751,-0.0905607044696807,4.009447021484375
1766000077853343700,5.25834375,1.1379647254943848,-1.5599958896636963,-2.021656990051269,4.0282265625
1766000077872123400,5.277123291015625,1.2688424587249756,-1.9430081844329836,-2.4568982124328613,4.047006103515626
1766000077890902800,5.29590283203125,0.4786889255046844,-2.171166181564331,-3.090212106704712,4.06578564453125
1766000077909682400,5.314682373046875,0.1770744323730468,-1.7023273706436155,-3.537976026535034,4.084565185546875
1766000077928462000,5.333462158203125,0.1885281354188919,-1.0172425508499146,-3.5715737342834477,4.103344970703125
1766000077947241700,5.35224169921875,-0.1143080741167068,-0.0813977345824241,-3.3015713691711426,4.12212451171875
1766000077975411200,5.3804111328125,-0.2952767610549927,0.3420842885971069,-2.263559341430664,4.1502939453125
1766000077994190800,5.39919091796875,-0.1567631810903549,0.3316995799541473,-1.2866339683532717,4.1690737304687495
1766000078012970500,5.417970458984375,0.1081994250416755,0.0691804364323616,-0.2087630331516266,4.187853271484375
1766000078041140000,5.446139892578125,0.3795761168003082,-0.0279470644891262,1.2272273302078247,4.2160227050781245
1766000078059919600,5.464919677734375,0.3884336352348327,0.1427896469831466,1.9605704545974727,4.234802490234376
1766000078078699300,5.48369921875,0.1955530941486358,0.4566214084625244,2.4022257328033447,4.25358203125
1766000078097479000,5.50247900390625,-0.0268016923218965,0.7667880058288574,2.6134321689605717,4.272361816406249
1766000078116258300,5.52125830078125,-0.2231947183609008,1.0896300077438354,2.7038402557373047,4.291141113281251
1766000078135038000,5.540037841796875,-0.4409680068492889,1.3125957250595093,2.7258312702178955,4.309920654296874
1766000078153817600,5.558817626953125,-0.7065414786338806,1.569158911705017,2.673602342605591,4.328700439453126
1766000078172597200,5.57759716796875,-0.9374483823776244,1.8463387489318848,2.556621789932251,4.34747998046875
1766000078191377000,5.596376953125,-1.0588576793670654,2.1729986667633057,2.3715298175811768,4.366259765624999
1766000078210156500,5.615156494140625,-1.0513746738433838,2.3981025218963623,2.1050400733947754,4.385039306640625
1766000078228936200,5.633936279296875,-0.9485966563224792,2.481332778930664,1.7857104539871216,4.4038190917968745
1766000078247715800,5.6527158203125,-0.9110284447669984,2.385885000228882,1.4381283521652222,4.4225986328125
1766000078266495500,5.67149560546875,-0.9348521828651428,2.1565053462982178,1.0080796480178833,4.44137841796875
1766000078285275100,5.690275146484375,-0.8836922645568848,2.0352487564086914,0.4274526238441467,4.460157958984375
1766000078304054800,5.7090546875,-0.9015600681304932,2.489579439163208,-0.61117023229599,4.478937500000001
1766000078322834400,5.72783447265625,-0.6503419280052185,1.3990330696105957,-0.8526145219802856,4.49771728515625
1766000078341614000,5.746614013671875,0.1417969912290573,0.6528617143630981,-1.1009310483932495,4.516496826171876
1766000078360393700,5.765393798828125,0.6375137567520142,-0.6023126840591431,-1.167820692062378,4.5352766113281255
1766000078379173400,5.78417333984375,0.1746309697628021,-0.591622531414032,-0.6495019793510437,4.554056152343749
1766000078397953000,5.802953125,-0.1943313628435135,-0.2612974047660827,-0.3155116438865661,4.572835937500001
1766000078416732400,5.821732421875,-0.114918939769268,-0.0499381944537162,-0.3181078433990478,4.591615234375
1766000078435512000,5.840511962890625,0.1231656074523925,-0.1519526094198227,-0.3853029608726501,4.610394775390626
1766000078454291700,5.859291748046875,0.2184605151414871,-0.3271180987358093,-0.476779967546463,4.6291745605468755
1766000078473071400,5.8780712890625,0.0489455386996269,-0.2266308367252349,-0.5554288029670715,4.647954101562501
1766000078491851000,5.89685107421875,-0.1037706509232521,0.152716189622879,-0.564439058303833,4.666733886718751
1766000078510630700,5.915630615234375,-0.0350483655929565,0.5963567495346069,-0.485484778881073,4.685513427734374
1766000078529410300,5.934410400390625,-0.0697149410843849,0.7576250433921814,-0.3933969140052795,4.704293212890626
1766000078548190000,5.95318994140625,-0.0840702652931213,0.5195404887199402,-0.3396408259868622,4.72307275390625
1766000078566969600,5.971969482421875,-0.0561232008039951,0.0763580948114395,-0.2985601723194122,4.741852294921875
1766000078595139000,6.00013916015625,-0.0338266380131244,-0.4239401519298553,-0.2386954128742218,4.7700219726562505
1766000078613918700,6.018918701171875,-0.0142789641395211,-0.4415025115013122,-0.1979201883077621,4.788801513671876
1766000078632698400,6.037698486328125,-0.0125990863889455,-0.3443750143051147,-0.1446222364902496,4.807581298828126
1766000078651478000,6.05647802734375,-0.0732274129986763,-0.3013090491294861,-0.1175914704799652,4.826360839843749
1766000078679647500,6.0846474609375,-0.104534238576889,-0.164780780673027,-0.1032361462712287,4.854530273437501
1766000078698427100,6.10342724609375,-0.1266780793666839,-0.0100792692974209,-0.067347839474678,4.87331005859375
1766000078717206800,6.122206787109375,-0.1642462611198425,0.16661337018013,-0.013439024798572,4.892089599609376
1766000078735986400,6.140986328125,-0.2028834670782089,0.2852738499641418,0.0635299384593963,4.910869140625
1766000078764156000,6.169156005859375,-0.2051742076873779,0.227088987827301,0.1753181964159011,4.939038818359375
1766000078782935600,6.187935546875,-0.1821140646934509,0.0717766135931015,0.2409861534833908,4.9578183593750005
1766000078801715200,6.206715087890625,-0.167300596833229,-0.0827721804380416,0.3109301626682281,4.976597900390626
1766000078820494800,6.225494873046875,-0.1689804643392563,-0.2083048969507217,0.3808741867542267,4.995377685546876
1766000078839274500,6.2442744140625,-0.1807396113872528,-0.2585485279560089,0.42959064245224,5.014157226562499
1766000078858054100,6.26305419921875,-0.20609050989151,-0.2050978541374206,0.4877755343914032,5.032937011718751
1766000078876833800,6.281833740234375,-0.2560287117958069,-0.1820377111434936,0.5564978122711182,5.051716552734375
1766000078895613400,6.300613525390625,-0.2922224402427673,-0.228921577334404,0.6030762791633606,5.070496337890624
1766000078914392800,6.319392822265625,-0.3603338599205017,-0.3417788445949554,0.6268999576568604,5.089275634765626
1766000078933172500,6.33817236328125,-0.4542543292045593,-0.4595230221748352,0.5858193039894104,5.108055175781249
