time,seconds_elapsed,z,y,x,t
1766001827488278500,4.191278564453125,-0.8784235715866089,-2.5482988357543945,-5.293677806854248,2.0377861328124993
1766001827507060000,4.21006005859375,-1.1517854928970337,-3.187263250350952,-4.468552112579346,2.0565676269531243
1766001827525841400,4.22884130859375,-0.119271345436573,-0.7479275465011597,-2.4786601066589355,2.0753488769531243
1766001827544622800,4.247622802734375,0.3208567202091217,1.6084833145141602,-1.1984403133392334,2.0941303710937493
1766001827563404300,4.266404296875,-0.0595593154430389,1.3676499128341677,-0.6013200283050537,2.1129118652343744
1766001827582185700,4.285185791015625,0.2060141414403915,-0.4119519293308258,-0.1851683855056762,2.1316933593749994
1766001827600967200,4.30396728515625,0.3095557391643524,-1.5951969623565674,-0.0358119495213031,2.1504748535156244
1766001827619748600,4.32274853515625,0.208610326051712,-1.008919596672058,-0.1005636155605316,2.1692561035156244
1766001827638530000,4.341530029296875,-0.0088575389236211,-0.3438405096530914,-0.1915824711322784,2.1880375976562494
1766001827657311500,4.3603115234375,0.0114537142217159,-0.4913643598556518,-0.2329685539007187,2.2068190917968744
1766001827676093200,4.37909326171875,-0.0174096468836069,-0.4895317554473877,-0.1970802545547485,2.2256008300781245
1766001827694874400,4.397874267578125,-0.0980437994003295,0.0840702652931213,-0.0235946513712406,2.2443818359374994
1766001827713655800,4.41665576171875,-0.1252272725105285,0.6561451554298401,0.2377027571201324,2.2631633300781244
1766001827732437500,4.4354375,-0.088575392961502,0.8685733675956726,0.4863247275352478,2.2819450683593745
1766001827751219000,4.454218994140625,-0.0739146396517753,1.1361321210861206,0.761366605758667,2.3007265624999995
1766001827779391000,4.482390869140625,-0.1834121495485305,1.5406773090362549,1.3054944276809692,2.3288984374999995
1766001827798172400,4.50117236328125,-0.2765690386295318,2.088623046875,2.719951868057251,2.3476799316406245
1766001827816953900,4.519953857421875,0.0041233371011912,2.838917732238769,5.85032844543457,2.3664614257812495
1766001827835735300,4.5387353515625,-0.1362228507641703,2.703763961791992,2.16437029838562,2.3852429199218745
1766001827854516700,4.557516845703125,-0.3303251266479492,1.364748239517212,2.1159591674804688,2.4040244140624996
1766001827873298200,4.576298095703125,0.7124210596084595,-0.4232529401779175,1.7570761442184448,2.4228056640624995
1766001827892079600,4.59507958984375,0.0757472291588783,0.3030652999877929,2.006614446640014,2.4415871582031246
1766001827910861000,4.613861083984375,-0.4601338803768158,0.4762454628944397,0.151112675666809,2.4603686523437496
1766001827929642500,4.632642578125,-0.1974620372056961,-0.238313615322113,-0.5397753715515137,2.4791501464843746
1766001827948424000,4.651423828125,-0.3197877109050751,-0.3603338599205017,-1.198898434638977,2.4979313964843746
1766001827967205400,4.670205322265625,0.002443459117785,-0.2919169962406158,-1.5351794958114624,2.5167128906249996
1766001827985986800,4.68898681640625,0.4204276800155639,-1.0944405794143677,-1.800600290298462,2.5354943847656246
1766001828004768300,4.707768310546875,0.1960875988006591,-1.3542108535766602,-2.004476308822632,2.5542758789062496
1766001828023549700,4.7265498046875,-0.4563159942626953,-0.9229403138160706,-2.052276611328125,2.5730573730468747
1766001828042331100,4.7453310546875,-0.5645917654037476,-0.4056905806064605,-1.920940637588501,2.5918386230468746
1766001828061112600,4.764112548828125,-0.2006690800189972,0.0863610059022903,-1.715842843055725,2.6106201171874996
1766001828079894000,4.78289404296875,-0.0268780495971441,0.0967457070946693,-1.5021928548812866,2.6294016113281247
1766001828098675500,4.801675537109375,-0.0427605360746383,-0.0771980360150337,-1.3128247261047363,2.6481831054687497
1766001828117457000,4.820456787109375,0.0403170771896839,0.4221839308738708,-1.2179880142211914,2.6669643554687497
1766001828136238300,4.83923828125,0.0226019974797964,0.8235220909118652,-1.2442551851272583,2.6857458496093747
1766001828155019800,4.858019775390625,-0.1426369249820709,0.1651625633239746,-1.056414246559143,2.7045273437499997
1766001828173801200,4.87680126953125,-0.1372918635606765,-0.6170498132705688,-0.4536434710025787,2.7233088378906247
1766001828192582700,4.895582763671875,0.1307250559329986,-0.784426748752594,0.0008399390499107,2.7420903320312497
1766001828211364000,4.914364013671875,0.1997527778148651,-0.0943022519350051,0.2716057598590851,2.7608715820312497
1766001828239536400,4.942536376953125,0.0135917412117123,0.330706924200058,0.5316814184188843,2.7890439453124998
1766001828258317800,4.96131787109375,0.1067486181855201,0.0164169911295175,0.6459131240844727,2.807825439453125
1766001828277099300,4.980099365234375,0.2383899837732315,-0.3203222155570984,0.7786235213279724,2.82660693359375
1766001828295880700,4.998880615234375,0.1788306683301925,-0.3132972717285156,0.9165262579917908,2.84538818359375
1766001828314662100,5.017662109375,0.1082757785916328,0.1369100660085678,1.1582759618759155,2.864169677734375
1766001828333443600,5.036443603515625,0.1366809904575348,0.3279580175876617,1.433470606803894,2.882951171875
1766001828352225000,5.05522509765625,0.1986837685108184,0.231899544596672,1.6601014137268066,2.901732666015625
1766001828371006500,5.07400634765625,0.2762635946273803,0.1877645552158355,1.7688353061676023,2.920513916015625
1766001828389788000,5.092787841796875,0.2541197538375854,0.1033125072717666,1.782885193824768,2.93929541015625
1766001828417960000,5.1209599609375,0.1053741723299026,0.0697149410843849,1.830532670021057,2.967467529296875
1766001828436741600,5.13974169921875,0.0482583157718181,0.2013563066720962,1.860923171043396,2.986249267578125
1766001828455522800,5.158522705078125,0.0768162459135055,0.4967094361782074,1.9856923818588257,3.0050302734375
1766001828474304300,5.17730419921875,0.1997527778148651,0.4328740537166595,1.9081125259399412,3.023811767578125
1766001828493086000,5.1960859375,0.2290742993354797,0.3885863721370697,1.7262275218963623,3.042593505859375
1766001828511867100,5.2148671875,0.2258672565221786,0.0845284163951873,1.560835838317871,3.061374755859375
1766001828530648600,5.233648681640625,0.4111120104789734,-0.1492800861597061,1.272507667541504,3.08015625
1766001828549430300,5.25243017578125,0.5242747068405151,-0.4620428383350372,0.6153699159622192,3.098937744140625
1766001828568211500,5.27121142578125,0.3866774141788482,-0.5229766368865967,0.1602756530046463,3.117718994140625
1766001828586993000,5.289992919921875,0.5114465355873108,-0.3891972303390503,-0.5570323467254639,3.13650048828125
1766001828605774600,5.308774658203125,-0.3985892832279205,-0.3646099269390106,-1.429347276687622,3.1552822265625
1766001828624555800,5.3275556640625,-0.5534434914588928,-0.3487274348735809,-2.683452606201172,3.174063232421875
1766001828643337200,5.346337158203125,-0.1928805559873581,-0.6788998246192932,-3.4200029373168945,3.1928447265625
1766001828662119000,5.365118896484375,-0.6076577305793762,-0.8734602928161621,-4.454044342041016,3.211626464843749
1766001828680900000,5.383900146484375,-1.2539526224136353,-1.7195080518722534,-5.662029266357422,3.23040771484375
1766001828699681800,5.402681884765625,-1.7385212182998655,-2.4534621238708496,-5.713189125061035,3.249189453124999
1766001828718463200,5.421463134765625,-0.7547234296798706,-0.7123447060585022,-3.507661819458008,3.267970703124999
1766001828737244700,5.44024462890625,0.3668242990970611,0.3178787529468536,-1.0577887296676636,3.286752197265624
1766001828756026000,5.459026123046875,0.2296851575374603,-0.0179441533982753,0.2549596726894378,3.305533691406249
1766001828774807600,5.4778076171875,0.2860374450683594,-0.7636573314666748,1.0932189226150513,3.324315185546874
1766001828793589000,5.496589111328125,0.398283839225769,-0.7299070358276367,1.0556507110595703,3.3430966796874992
1766001828812370400,5.515370361328125,0.0960584878921508,0.0145843969658017,0.5452731847763062,3.361877929687499
1766001828831151900,5.53415185546875,-0.0548251122236251,0.4898371994495392,0.0484873913228511,3.3806594238281242
1766001828849933300,5.552933349609375,0.0080939587205648,0.3985128998756408,-0.1979965418577194,3.3994409179687493
1766001828868714800,5.57171484375,-0.0146607551723718,0.2926805913448334,-0.2381609082221985,3.4182224121093743
1766001828887496200,5.59049609375,-0.0175623632967472,0.0240528006106615,-0.0800996422767639,3.4370036621093742
1766001828906277600,5.609277587890625,0.002443459117785,0.0814740881323814,0.1364519149065017,3.4557851562499993
1766001828925059000,5.62805908203125,-0.0522289387881755,0.3526980578899383,0.2679405510425567,3.4745666503906243
1766001828943840500,5.646840576171875,-0.1266017258167266,0.5697077512741089,0.4150062501430511,3.4933481445312493
1766001828962622200,5.665622314453125,-0.1983783394098281,0.7126501202583313,0.6465240120887756,3.5121298828124994
1766001828981403600,5.684403564453125,-0.2429714649915695,0.844444215297699,0.996702253818512,3.5309111328124994
1766001829000185000,5.70318505859375,-0.347123920917511,2.0617449283599854,3.206658363342285,3.5496926269531244
1766001829018966500,5.721966552734375,0.2970330119132995,3.093801021575928,4.700069904327393,3.5684741210937494
1766001829037748000,5.740748046875,1.5154027938842771,3.514075994491577,1.5211296081542969,3.5872556152343744
1766001829056529400,5.759529296875,0.2160934209823608,-1.9313253164291384,1.4618757963180542,3.6060368652343744
1766001829075310800,5.778310791015625,-0.3644571900367737,1.270216941833496,2.923827886581421,3.6248183593749994
1766001829094092300,5.79709228515625,-1.479209065437317,-0.973642110824585,1.0162498950958252,3.6435998535156244
1766001829112873700,5.815873779296875,-0.9450078010559082,5.344990253448486,-0.6463713049888611,3.6623813476562495
1766001829131655200,5.8346552734375,-0.5042688846588135,-1.814192056655884,-1.2773946523666382,3.6811628417968745
1766001829150436600,5.8534365234375,0.3335321843624115,0.8204677700996399,-1.821675181388855,3.6999440917968744
1766001829169218000,5.872218017578125,0.3252854943275451,3.5737879276275635,-1.5967241525650024,3.7187255859374995
1766001829187999500,5.89099951171875,-0.6059778332710266,1.4659991264343262,-2.1202352046966557,3.7375070800781245
1766001829206781000,5.909781005859375,-1.299156665802002,0.3931678533554077,-1.5964187383651731,3.7562885742187495
1766001829225562400,5.928562255859375,-0.2985601723194122,-0.5312232971191406,-1.1698824167251587,3.7750698242187495
1766001829244343800,5.94734375,0.2712239623069763,-0.9849430918693542,-1.043433427810669,3.7938513183593745
1766001829263125200,5.966125244140625,0.0412333719432354,-0.5610029697418213,-0.8913280963897705,3.8126328124999995
1766001829281906700,5.98490673828125,-0.1701258420944214,0.2166279256343841,-0.8044325709342957,3.8314143066406245
1766001829300688100,6.003688232421875,-0.2191477417945861,1.061453938484192,-0.6393463611602783,3.8501958007812496
1766001829319469600,6.022469482421875,-0.1777616441249847,1.0926079750061035,-0.5423715710639954,3.8689770507812495
1766001829338251000,6.0412509765625,-0.0913242846727371,0.1476002037525177,-0.4528798758983612,3.8877585449218746
1766001829357032400,6.060032470703125,-0.0552832633256912,-0.8080977201461792,-0.3378845751285553,3.9065400390624996
1766001829375814000,6.07881396484375,-0.1122464016079902,-0.9174425601959229,-0.1831830739974975,3.9253215332031246
1766001829394595300,6.09759521484375,-0.0875063762068748,-0.3917934000492096,-0.1056032478809356,3.9441027832031246
1766001829413376800,6.116376708984375,-0.0894916877150535,0.1970802545547485,-0.0251218136399984,3.9628842773437496
1766001829432158200,6.135158203125,-0.0803287178277969,0.3197113573551178,0.1165988147258758,3.9816657714843746
1766001829450939600,6.153939697265625,-0.0299323741346597,0.1677587330341339,0.2566395699977875,4.000447265625
1766001829469721000,6.17272119140625,-0.0171042140573263,-0.0527634471654892,0.4347066581249237,4.019228759765625
1766001829488502500,6.19150244140625,-0.003359756199643,-0.3064250349998474,0.6718748807907104,4.038010009765625
