time,seconds_elapsed,z,y,x,t
1766001828493086000,5.1960859375,-1.367257595062256,-0.6229133605957031,1.4037556648254397,3.051984130859375
1766001828511867100,5.2148671875,-3.20246696472168,-5.113490104675293,1.6671552658081057,3.070765380859375
1766001828530648600,5.233648681640625,-5.439614295959473,-8.463010787963867,-0.6223037242889404,3.089546875
1766001828549430300,5.25243017578125,-8.941274642944336,-7.357037544250488,-1.122707724571228,3.108328369140625
1766001828568211500,5.27121142578125,-14.86781120300293,-4.629781723022461,0.454717755317688,3.127109619140625
1766001828586993000,5.289992919921875,-16.190433502197266,0.4375667572021484,-0.8518375158309937,3.14589111328125
1766001828605774600,5.308774658203125,-16.53274154663086,19.70978164672852,3.8328757286071777,3.1646728515625
1766001828624555800,5.3275556640625,-23.207015991210938,18.89437866210937,1.9871344566345213,3.183453857421875
1766001828643337200,5.346337158203125,-20.43168258666992,3.646017074584961,2.198587417602539,3.2022353515625
1766001828662119000,5.365118896484375,-13.66854763031006,11.663639068603516,0.2645920515060425,3.221017089843749
1766001828680900000,5.383900146484375,-5.971103668212891,17.381330490112305,-0.9883175492286682,3.23979833984375
1766001828699681800,5.402681884765625,1.0644930601119995,0.9085330963134766,2.9584107398986816,3.258580078124999
1766001828718463200,5.421463134765625,13.302300453186035,-15.66480827331543,2.4927027225494385,3.277361328124999
1766001828737244700,5.44024462890625,18.37209892272949,-16.8939266204834,-0.9505407810211182,3.296142822265624
1766001828756026000,5.459026123046875,14.539304733276367,-8.47439193725586,2.839974880218506,3.314924316406249
1766001828774807600,5.4778076171875,8.858893394470215,-13.49899959564209,0.282426655292511,3.333705810546874
1766001828793589000,5.496589111328125,0.8355917930603027,-8.987961769104004,-1.23539400100708,3.3524873046874992
1766001828812370400,5.515370361328125,-3.7559831142425537,-9.51490306854248,1.5190987586975098,3.371268554687499
1766001828831151900,5.53415185546875,-3.530731201171875,-9.128698348999023,0.2609010338783264,3.390050048828124
1766001828849933300,5.552933349609375,-0.7037636041641235,-9.78380012512207,-0.2800553441047668,3.4088315429687492
1766001828878105600,5.581105712890625,3.045950412750244,-10.244460105895996,0.3240580558776855,3.4370039062499993
1766001828896887000,5.599886962890625,3.6590728759765625,-10.342287063598633,0.0948477983474731,3.4557851562499993
1766001828915668500,5.61866845703125,2.761263608932495,-9.863848686218262,0.6776334643363953,3.4745666503906243
1766001828934450000,5.637449951171875,2.281315803527832,-9.64337158203125,0.7099061608314514,3.4933481445312493
1766001828953231400,5.6562314453125,2.8074188232421875,-9.603344917297363,0.3774348497390747,3.5121296386718743
1766001828972012800,5.6750126953125,3.5405285358428955,-9.822050094604492,-0.275118887424469,3.5309108886718743
1766001828990794200,5.693794189453125,3.070868015289306,-8.802141189575195,1.3551088571548462,3.5496923828124993
1766001829009575700,5.71257568359375,0.2072200775146484,-11.101219177246094,3.150500059127808,3.5684738769531243
1766001829028357000,5.731357177734375,-23.903614044189453,3.106534004211426,-3.846868991851807,3.5872553710937494
1766001829047138600,5.750138671875,-0.0465688705444335,29.687355041503903,-8.659226417541504,3.6060368652343744
1766001829065920000,5.768919921875,5.476236343383789,4.819637298583984,1.536983847618103,3.6248181152343744
1766001829084701400,5.787701416015625,40.11627960205078,56.0639877319336,-1.147406816482544,3.6435996093749994
1766001829103483000,5.80648291015625,-28.36457252502441,13.866849899291992,-6.570272445678711,3.6623811035156244
1766001829122264300,5.825264404296875,-33.107757568359375,-16.44194984436035,15.562480926513672,3.6811625976562494
1766001829141045800,5.844045654296875,-14.4282865524292,-28.05731201171875,7.7345290184021,3.6999438476562494
1766001829159827500,5.862827392578125,-8.996774673461914,-0.2963895797729492,-7.884273052215576,3.7187255859374995
1766001829178608600,5.881608642578125,-0.829444408416748,20.80036354064941,-4.192889213562012,3.7375068359374994
1766001829197390000,5.90039013671875,5.71680212020874,5.59123420715332,5.2785468101501465,3.7562883300781245
1766001829216171800,5.919171875,5.598870277404785,-11.065352439880373,-5.427856922149658,3.7750700683593745
1766001829234953200,5.937953125,6.650371551513672,-10.967865943908691,-10.068140983581545,3.7938513183593745
1766001829253734700,5.956734619140625,7.009341239929199,-1.686701774597168,-1.9637761116027832,3.8126328124999995
1766001829272516000,5.97551611328125,4.304572105407715,2.8312902450561523,3.0798676013946533,3.8314143066406245
1766001829291297500,5.994297607421875,0.9492470622062684,2.139859199523926,3.9241185188293457,3.8501958007812496
1766001829310079000,6.013078857421875,0.1433497667312622,-0.5205802917480469,0.3746522665023803,3.8689770507812495
1766001829328860400,6.0318603515625,0.6181630492210388,-0.5133771896362305,-2.8987951278686523,3.8877585449218746
1766001829347641900,6.050641845703125,1.276873230934143,1.0312767028808594,-2.802576780319214,3.9065400390624996
1766001829375814000,6.07881396484375,2.112525463104248,0.3496408462524414,1.8649868965148928,3.9347121582031246
1766001829394595300,6.09759521484375,2.5606589317321777,-0.7982273101806641,1.4658753871917725,3.9534934082031246
1766001829413376800,6.116376708984375,2.1726596355438232,-1.0858402252197266,0.0637560486793518,3.9722749023437496
1766001829432158200,6.135158203125,2.046542167663574,-0.3163976669311523,-0.5407133102416992,3.9910563964843746
1766001829450939600,6.153939697265625,2.3829565048217773,0.3308095932006836,-0.4978250861167907,4.009837890625
1766001829469721000,6.17272119140625,3.416116714477539,-0.2822332382202148,-0.0177904963493347,4.028619384765625
1766001829488502500,6.19150244140625,5.077295780181885,-0.4775285720825195,-0.3264852166175842,4.047400634765625
1766001829507284200,6.2102841796875,6.485407829284668,-0.0133352279663085,-0.9718971848487854,4.066182373046875
1766001829526065700,6.229065673828125,7.0525665283203125,-0.2147588729858398,-0.1713604927062988,4.0849638671875
1766001829544847000,6.24784716796875,6.532469749450684,-0.8163232803344727,0.3672143816947937,4.103745361328125
1766001829563628500,6.266628662109375,4.917672634124756,-0.1542167663574218,0.7235963940620422,4.12252685546875
1766001829582410000,6.285409912109375,3.174713611602783,0.1935548782348632,1.221651554107666,4.14130810546875
1766001829601191400,6.30419140625,2.025001049041748,-0.0285778045654296,-0.1776743531227111,4.160089599609375
1766001829619972900,6.322972900390625,1.9010874032974243,-0.6047153472900391,-1.0213837623596191,4.17887109375
1766001829638754300,6.34175439453125,1.8489468097686768,-0.7198019027709961,-0.1077388226985931,4.197652587890625
1766001829657535700,6.36053564453125,-0.2603597640991211,0.2744779586791992,0.4895714223384857,4.216433837890625
1766001829676317200,6.379317138671875,-1.2946958541870115,-0.7872858047485352,0.3127420544624328,4.23521533203125
1766001829695098600,6.3980986328125,-3.358203887939453,-3.949429988861084,-1.024516463279724,4.253996826171875
1766001829713880000,6.416880126953125,-10.036952018737791,-9.022903442382812,-1.7688394784927368,4.2727783203125
1766001829732661500,6.43566162109375,-15.694025039672852,-11.417573928833008,-2.900461196899414,4.291559814453125
1766001829751443000,6.45444287109375,-18.433528900146484,-5.55825138092041,0.1383417248725891,4.310341064453125
1766001829770224400,6.473224365234375,-17.96259117126465,7.499906539916992,1.175452470779419,4.32912255859375
1766001829789005800,6.492005859375,-18.597888946533203,31.20399475097656,3.2956812381744385,4.347904052734375
1766001829807787500,6.51078759765625,-15.07748794555664,12.983528137207031,1.2936004400253296,4.366685791015625
1766001829826568700,6.529568603515625,-10.58487319946289,15.152454376220703,-1.4011991024017334,4.385466796875
1766001829845350400,6.548350341796875,-3.659486770629883,13.479527473449709,-1.8791522979736328,4.40424853515625
1766001829864131800,6.5671318359375,1.7806663513183594,0.7617654800415039,3.079627513885498,4.423030029296875
1766001829882913300,6.585913330078125,10.815768241882324,-10.357258796691896,6.945203304290772,4.4418115234375
1766001829901694700,6.60469482421875,15.193278312683104,-16.1007022857666,3.632705211639404,4.460593017578125
1766001829920476200,6.62347607421875,9.320697784423828,-8.269204139709473,2.649080753326416,4.479374267578125
1766001829939257600,6.642257568359375,6.482318878173828,-9.272466659545898,0.3365007042884826,4.49815576171875
1766001829958039000,6.6610390625,1.804293155670166,-8.665472984313965,-1.979725003242493,4.516937255859375
1766001829976820500,6.679820556640625,-0.5535666346549988,-9.924849510192873,1.089779496192932,4.535718749999999
1766001829995602000,6.698601806640625,-0.640559732913971,-9.106351852416992,1.1739566326141355,4.5545
1766001830014383400,6.71738330078125,-0.0191013216972351,-9.458786010742188,-1.260987639427185,4.573281494140624
1766001830033165000,6.7361650390625,0.514850378036499,-9.572861671447754,-0.668221652507782,4.592063232421874
1766001830051946500,6.754946533203125,0.8635748624801636,-9.808143615722656,0.969389259815216,4.610844726562499
1766001830070728000,6.77372802734375,1.1217434406280518,-10.310009956359863,0.9418780207633972,4.629626220703124
1766001830089509400,6.79250927734375,1.262808918952942,-9.808008193969728,0.3246417641639709,4.648407470703124
1766001830108290800,6.811290771484375,1.7666456699371338,-9.847408294677734,1.1735724210739136,4.667188964843749
1766001830127072300,6.830072265625,2.777092933654785,-10.753918647766112,1.9347261190414429,4.685970458984374
1766001830145853700,6.848853759765625,3.6893351078033447,-10.97264003753662,1.4255543947219849,4.704751953124999
1766001830164635100,6.86763525390625,4.001697540283203,-9.623700141906738,1.4660555124282837,4.723533447265624
1766001830183417000,6.8864169921875,3.0525014400482178,-12.16424560546875,4.370738983154297,4.742315185546874
1766001830202198500,6.905198486328125,-12.434320449829102,9.649520874023438,-1.230105757713318,4.761096679687499
1766001830220980000,6.92397998046875,9.28907585144043,39.68602752685547,-2.386087656021118,4.779878173828124
1766001830239761700,6.94276171875,-8.860724449157715,6.399283409118652,0.3723254203796386,4.7986599121093745
1766001830258542800,6.96154296875,3.5897092819213867,26.85034942626953,0.6413187384605408,4.8174411621093745
1766001830277324300,6.98032421875,-19.81210708618164,25.669864654541016,-2.95903754234314,4.836222412109374
1766001830296106000,6.99910595703125,-20.486230850219727,-2.83296012878418,0.0164550766348838,4.8550041503906245
1766001830314887400,7.017887451171875,-15.466692924499512,-13.474004745483398,-0.5406929850578308,4.8737856445312495
1766001830333668900,7.0366689453125,-8.262005805969238,-8.748313903808594,-7.00443172454834,4.8925671386718745
1766001830352450300,7.0554501953125,-2.1201746463775635,0.3447475433349609,-2.1393818855285645,4.9113483886718745
1766001830371231700,7.074231689453125,-0.7334935665130615,3.299043655395508,5.432113170623779,4.9301298828124995
1766001830390013200,7.09301318359375,0.9947316646575928,-0.2534217834472656,9.391714096069336,4.9489113769531246
1766001830408794600,7.111794677734375,2.463823080062866,-4.149673461914063,5.328334808349609,4.96769287109375
1766001830427576000,7.130576171875,4.536710739135742,-5.862733364105225,2.02002215385437,4.986474365234375
1766001830446357500,7.149357421875,5.038686752319336,-5.55320930480957,-0.8346996307373047,5.005255615234375
1766001830465139000,7.168138916015625,3.96940279006958,-3.467280387878418,-3.2587618827819824,5.024037109375
1766001830493311200,7.196311279296875,1.6128807067871094,1.5380821228027344,-1.8394360542297363,5.05220947265625
