time,seconds_elapsed,z,y,x,t
1766001829507284200,6.2102841796875,6.485407829284668,-0.0133352279663085,-0.9718971848487854,4.066182373046875
1766001829526065700,6.229065673828125,7.0525665283203125,-0.2147588729858398,-0.1713604927062988,4.0849638671875
1766001829544847000,6.24784716796875,6.532469749450684,-0.8163232803344727,0.3672143816947937,4.103745361328125
1766001829563628500,6.266628662109375,4.917672634124756,-0.1542167663574218,0.7235963940620422,4.12252685546875
1766001829582410000,6.285409912109375,3.174713611602783,0.1935548782348632,1.221651554107666,4.14130810546875
1766001829601191400,6.30419140625,2.025001049041748,-0.0285778045654296,-0.1776743531227111,4.160089599609375
1766001829619972900,6.322972900390625,1.9010874032974243,-0.6047153472900391,-1.0213837623596191,4.17887109375
1766001829638754300,6.34175439453125,1.8489468097686768,-0.7198019027709961,-0.1077388226985931,4.197652587890625
1766001829657535700,6.36053564453125,-0.2603597640991211,0.2744779586791992,0.4895714223384857,4.216433837890625
1766001829676317200,6.379317138671875,-1.2946958541870115,-0.7872858047485352,0.3127420544624328,4.23521533203125
1766001829695098600,6.3980986328125,-3.358203887939453,-3.949429988861084,-1.024516463279724,4.253996826171875
1766001829713880000,6.416880126953125,-10.036952018737791,-9.022903442382812,-1.7688394784927368,4.2727783203125
1766001829732661500,6.43566162109375,-15.694025039672852,-11.417573928833008,-2.900461196899414,4.291559814453125
1766001829751443000,6.45444287109375,-18.433528900146484,-5.55825138092041,0.1383417248725891,4.310341064453125
1766001829770224400,6.473224365234375,-17.96259117126465,7.499906539916992,1.175452470779419,4.32912255859375
1766001829789005800,6.492005859375,-18.597888946533203,31.20399475097656,3.2956812381744385,4.347904052734375
1766001829807787500,6.51078759765625,-15.07748794555664,12.983528137207031,1.2936004400253296,4.366685791015625
1766001829826568700,6.529568603515625,-10.58487319946289,15.152454376220703,-1.4011991024017334,4.385466796875
1766001829845350400,6.548350341796875,-3.659486770629883,13.479527473449709,-1.8791522979736328,4.40424853515625
1766001829864131800,6.5671318359375,1.7806663513183594,0.7617654800415039,3.079627513885498,4.423030029296875
1766001829882913300,6.585913330078125,10.815768241882324,-10.357258796691896,6.945203304290772,4.4418115234375
1766001829901694700,6.60469482421875,15.193278312683104,-16.1007022857666,3.632705211639404,4.460593017578125
1766001829920476200,6.62347607421875,9.320697784423828,-8.269204139709473,2.649080753326416,4.479374267578125
1766001829939257600,6.642257568359375,6.482318878173828,-9.272466659545898,0.3365007042884826,4.49815576171875
1766001829958039000,6.6610390625,1.804293155670166,-8.665472984313965,-1.979725003242493,4.516937255859375
1766001829976820500,6.679820556640625,-0.5535666346549988,-9.924849510192873,1.089779496192932,4.535718749999999
1766001829995602000,6.698601806640625,-0.640559732913971,-9.106351852416992,1.1739566326141355,4.5545
1766001830014383400,6.71738330078125,-0.0191013216972351,-9.458786010742188,-1.260987639427185,4.573281494140624
1766001830033165000,6.7361650390625,0.514850378036499,-9.572861671447754,-0.668221652507782,4.592063232421874
1766001830051946500,6.754946533203125,0.8635748624801636,-9.808143615722656,0.969389259815216,4.610844726562499
1766001830070728000,6.77372802734375,1.1217434406280518,-10.310009956359863,0.9418780207633972,4.629626220703124
1766001830089509400,6.79250927734375,1.262808918952942,-9.808008193969728,0.3246417641639709,4.648407470703124
1766001830108290800,6.811290771484375,1.7666456699371338,-9.847408294677734,1.1735724210739136,4.667188964843749
1766001830127072300,6.830072265625,2.777092933654785,-10.753918647766112,1.9347261190414429,4.685970458984374
1766001830145853700,6.848853759765625,3.6893351078033447,-10.97264003753662,1.4255543947219849,4.704751953124999
1766001830164635100,6.86763525390625,4.001697540283203,-9.623700141906738,1.4660555124282837,4.723533447265624
1766001830183417000,6.8864169921875,3.0525014400482178,-12.16424560546875,4.370738983154297,4.742315185546874
1766001830202198500,6.905198486328125,-12.434320449829102,9.649520874023438,-1.230105757713318,4.761096679687499
1766001830220980000,6.92397998046875,9.28907585144043,39.68602752685547,-2.386087656021118,4.779878173828124
1766001830239761700,6.94276171875,-8.860724449157715,6.399283409118652,0.3723254203796386,4.7986599121093745
1766001830258542800,6.96154296875,3.5897092819213867,26.85034942626953,0.6413187384605408,4.8174411621093745
1766001830277324300,6.98032421875,-19.81210708618164,25.669864654541016,-2.95903754234314,4.836222412109374
1766001830296106000,6.99910595703125,-20.486230850219727,-2.83296012878418,0.0164550766348838,4.8550041503906245
1766001830314887400,7.017887451171875,-15.466692924499512,-13.474004745483398,-0.5406929850578308,4.8737856445312495
1766001830333668900,7.0366689453125,-8.262005805969238,-8.748313903808594,-7.00443172454834,4.8925671386718745
1766001830352450300,7.0554501953125,-2.1201746463775635,0.3447475433349609,-2.1393818855285645,4.9113483886718745
1766001830371231700,7.074231689453125,-0.7334935665130615,3.299043655395508,5.432113170623779,4.9301298828124995
1766001830390013200,7.09301318359375,0.9947316646575928,-0.2534217834472656,9.391714096069336,4.9489113769531246
1766001830408794600,7.111794677734375,2.463823080062866,-4.149673461914063,5.328334808349609,4.96769287109375
1766001830427576000,7.130576171875,4.536710739135742,-5.862733364105225,2.02002215385437,4.986474365234375
1766001830446357500,7.149357421875,5.038686752319336,-5.55320930480957,-0.8346996307373047,5.005255615234375
1766001830465139000,7.168138916015625,3.96940279006958,-3.467280387878418,-3.2587618827819824,5.024037109375
1766001830493311200,7.196311279296875,1.6128807067871094,1.5380821228027344,-1.8394360542297363,5.05220947265625
1766001830512092700,7.2150927734375,0.7534085512161255,5.124271392822266,-1.0425212383270264,5.070990966796875
1766001830530874000,7.2338740234375,0.069481611251831,5.958148002624512,-1.4874521493911743,5.089772216796875
1766001830549655600,7.252655517578125,0.8167324066162109,1.7759723663330078,-1.53240168094635,5.1085537109375
1766001830568437000,7.27143701171875,2.1907901763916016,-1.2497282028198242,0.9420111179351808,5.127335205078125
1766001830587218400,7.290218505859375,3.617985725402832,-0.7960901260375977,1.9054861068725584,5.14611669921875
1766001830605999900,7.308999755859375,3.983109474182129,-0.7071399688720703,1.2386970520019531,5.16489794921875
1766001830624781300,7.32778125,3.8176326751708975,-1.4628524780273438,0.1605329811573028,5.183679443359375
1766001830652953600,7.35595361328125,2.9693827629089355,0.3276548385620117,-0.1857191622257232,5.211851806640625
1766001830671735000,7.374735107421875,2.7713913917541504,-0.0211343765258789,0.3647320866584778,5.23063330078125
1766001830690516500,7.3935166015625,3.3991446495056152,-0.2170553207397461,0.455156147480011,5.249414794921875
1766001830709298000,7.4122978515625,3.973808765411377,0.1694469451904297,0.0174927562475204,5.268196044921875
1766001830728079400,7.431079345703125,4.372480869293213,0.5710878372192383,-0.0869396328926086,5.2869775390625
1766001830746860800,7.44986083984375,4.320643424987793,0.8883495330810547,-0.2449450492858886,5.305759033203125
1766001830765642200,7.468642333984375,3.781920909881592,0.942214012145996,-0.5669983625411987,5.32454052734375
1766001830784423700,7.487423583984375,4.141017436981201,1.0688810348510742,-1.240125298500061,5.34332177734375
1766001830803205000,7.506205078125,2.864609479904175,0.5677967071533203,-2.1985292434692383,5.362103271484375
1766001830821986600,7.524986572265625,0.7118158340454102,-1.0163030624389648,-1.065280199050903,5.380884765625
1766001830840768000,7.54376806640625,-0.7698335647583008,-3.128767490386963,0.0548123568296432,5.399666259765625
1766001830859549400,7.562549560546875,-1.9001049995422363,-5.484047889709473,1.2349374294281006,5.41844775390625
1766001830878331000,7.581330810546875,-3.479602336883545,-7.5012407302856445,4.752543449401856,5.43722900390625
1766001830897112300,7.6001123046875,-4.627388954162598,-6.649776458740234,3.179640531539917,5.456010498046875
1766001830915893800,7.618893798828125,-9.588515281677246,-6.673976421356201,2.9334964752197266,5.4747919921875
1766001830934675500,7.637675537109375,-10.105384826660156,-3.856260776519776,-0.0346136689186096,5.49357373046875
1766001830953457000,7.656456787109375,-11.479073524475098,7.238184928894043,1.4571020603179932,5.51235498046875
1766001830972238300,7.67523828125,-15.781760215759276,27.35770606994629,3.397003412246704,5.531136474609375
1766001830991019800,7.694019775390625,-15.869792938232422,7.556053161621094,-1.8654592037200928,5.54991796875
1766001831009801200,7.71280126953125,-15.135515213012695,9.162540435791016,-1.3883373737335205,5.568699462890624
1766001831028582700,7.731582763671875,-11.283452987670898,14.245694160461426,-3.2417337894439697,5.587480957031249
1766001831047364000,7.750364013671875,-4.563420295715332,9.583207130432127,-4.00604248046875,5.60626220703125
1766001831066145500,7.7691455078125,-1.6018962860107422,3.2169580459594727,-0.8674835562705994,5.625043701171874
1766001831084927000,7.787927001953125,2.4020583629608154,-6.193730354309082,4.132277488708496,5.643825195312499
1766001831103708400,7.80670849609375,7.152187824249268,-12.459579467773438,3.348529815673828,5.662606689453124
1766001831131880700,7.834880615234375,6.219943046569824,-8.273178100585938,2.925257682800293,5.690778808593749
1766001831150662100,7.853662109375,5.600467681884766,-9.462850570678713,2.7937111854553223,5.709560302734374
1766001831169443600,7.872443603515625,6.324131488800049,-10.567354202270508,-0.7088656425476074,5.728341796874999
1766001831188225000,7.89122509765625,5.073247909545898,-11.756088256835938,-2.4093828201293945,5.747123291015624
1766001831207006500,7.91000634765625,3.3593225479125977,-10.65463924407959,1.25414776802063,5.765904541015624
1766001831225788000,7.928787841796875,1.8305151462554927,-10.21030330657959,1.713918685913086,5.784686035156249
1766001831244569300,7.9475693359375,1.08873450756073,-9.680092811584473,1.7077007293701172,5.803467529296874
1766001831263350800,7.966350830078125,1.3936281204223633,-9.324496269226074,1.750190019607544,5.822249023437499
1766001831291523000,7.994523193359375,2.52226996421814,-9.955144882202148,0.8739944100379944,5.850421386718749
1766001831310304500,8.013304443359376,2.756321907043457,-9.596911430358888,0.0031604766845703,5.86920263671875
1766001831329086000,8.0320859375,2.76391077041626,-9.070473670959473,0.6214511394500732,5.887984130859374
1766001831347867600,8.05086767578125,1.3280729055404663,-9.128863334655762,1.8540608882904053,5.906765869140624
1766001831366649000,8.069649169921876,4.26886796951294,-11.851778030395508,0.6866646409034729,5.92554736328125
1766001831385430500,8.088430419921876,-23.91068649291992,-4.1595563888549805,-0.9202664494514464,5.94432861328125
1766001831404212000,8.1072119140625,1.5312418937683103,27.29652404785156,-4.773591041564941,5.963110107421874
1766001831422993400,8.125993408203126,-9.865663528442385,15.379108428955078,1.8957778215408323,5.9818916015625
1766001831441774800,8.14477490234375,-4.768726348876953,4.582788467407227,0.770051121711731,6.0006730957031245
1766001831460556300,8.163556396484376,2.145320415496826,48.799072265625,5.923653602600098,6.01945458984375
1766001831479337700,8.182337646484376,-18.762481689453125,11.109441757202148,-4.845671653747559,6.03823583984375
1766001831498119200,8.201119140625,-18.66628837585449,-6.259331226348877,-1.9617328643798828,6.0570173339843745
1766001831516900600,8.219900634765626,-10.036751747131348,-11.539650917053224,-4.448598861694336,6.075798828125
