time,seconds_elapsed,z,y,x,t
1766001834606452500,11.309452392578123,6.540329456329346,-9.276874542236328,7.778940200805664,9.165350585937498
1766001834625234000,11.32823388671875,12.261631965637209,-16.47020149230957,5.343689918518066,9.184132080078125
1766001834644015400,11.347015380859377,11.044160842895508,-10.10206413269043,0.975761353969574,9.202913574218751
1766001834672187600,11.375187744140623,8.185208320617676,-11.508087158203123,-0.0735009908676147,9.231085937499998
1766001834690969000,11.393968994140623,2.859092712402344,-10.183867454528809,1.3423457145690918,9.249867187499998
1766001834709750500,11.41275048828125,-0.0510194897651672,-9.539300918579102,3.3135459423065186,9.268648681640624
1766001834728532200,11.4315322265625,-0.7364456653594971,-8.713296890258789,0.7540832757949829,9.287430419921874
1766001834747313700,11.450313720703123,-0.3678843080997467,-9.33803367614746,0.1371474266052246,9.306211914062498
1766001834766095000,11.46909521484375,0.4899241626262665,-9.879462242126465,0.8875933885574341,9.324993408203124
1766001834784876500,11.48787646484375,1.1139687299728394,-10.15500831604004,1.3595037460327148,9.343774658203124
1766001834803658000,11.506657958984375,1.6436550617218018,-9.979856491088867,0.8558169603347778,9.36255615234375
1766001834822439400,11.525439453125,2.149599075317383,-9.37513256072998,0.6643134355545044,9.381337646484374
1766001834841221000,11.54422119140625,2.657989501953125,-9.405041694641112,0.6970289945602417,9.400119384765624
1766001834860002600,11.56300244140625,3.0217902660369877,-9.979936599731444,1.5759379863739014,9.418900634765624
1766001834878784000,11.581783935546875,2.919890880584717,-9.644262313842772,2.2367172241210938,9.43768212890625
1766001834897565400,11.6005654296875,5.497530937194824,-14.191425323486328,2.792151689529419,9.456463623046874
1766001834916347000,11.619346923828124,-16.121089935302734,10.666525840759276,-2.355269432067871,9.475245117187498
1766001834935128300,11.63812841796875,7.692883968353271,42.51445007324219,-1.1462620496749878,9.494026611328124
1766001834953910000,11.656909912109375,-8.200254440307617,5.121738433837891,-6.6769843101501465,9.51280810546875
1766001834972691500,11.67569140625,2.537989616394043,3.8304977416992183,-3.3358752727508545,9.531589599609374
1766001834991473000,11.694472900390624,-15.49770164489746,49.06169509887695,-4.455361366271973,9.550371093749998
1766001835010254300,11.71325439453125,-22.81954574584961,0.6141767501831055,0.7947968244552612,9.569152587890624
1766001835029035800,11.732035888671875,-18.090038299560547,-18.69663619995117,10.47535800933838,9.58793408203125
1766001835047817200,11.750817138671875,-10.11802864074707,-9.121373176574709,3.177830934524536,9.60671533203125
1766001835066598700,11.7695986328125,-4.171395778656006,4.081249237060547,1.3223334550857544,9.625496826171874
1766001835085380400,11.78838037109375,-2.2680306434631348,10.699355125427246,5.258115291595459,9.644278564453124
1766001835104161800,11.807161865234375,2.258850574493408,0.1213188171386718,4.69523811340332,9.66306005859375
1766001835122943200,11.825943115234375,4.632476329803467,-8.235918045043945,-1.9912360906600952,9.68184130859375
1766001835141724700,11.844724609375,6.728283405303955,-10.131577491760254,-5.892763614654541,9.700622802734374
1766001835160506000,11.863506103515626,8.071578025817871,-5.623701095581055,-4.499136447906494,9.719404296875
1766001835179287600,11.88228759765625,5.538125514984131,-0.2351589202880859,-2.80387544631958,9.738185791015624
1766001835198069200,11.9010693359375,1.3316208124160769,2.522611618041992,-1.120104193687439,9.756967529296874
1766001835216850700,11.9198505859375,-1.9339207410812376,4.002588272094727,0.4186238050460815,9.775748779296874
1766001835235632000,11.938632080078126,0.4940691292285919,2.675058364868164,1.1127362251281738,9.7945302734375
1766001835254413600,11.95741357421875,7.7562785148620605,-0.8735179901123047,0.4549495577812195,9.813311767578124
1766001835273195000,11.976195068359376,9.711779594421388,-2.9214119911193848,0.9668999910354614,9.83209326171875
1766001835291976400,11.9949765625,5.998189449310303,-0.481088638305664,1.0363928079605105,9.850874755859374
1766001835320148700,12.023148681640626,0.4412336349487304,0.1232252120971679,-0.9917776584625244,9.879046875
1766001835338930200,12.04193017578125,-0.7862761616706848,-0.010420799255371,-1.2561967372894287,9.897828369140624
1766001835357711600,12.060711669921876,-1.3073184490203855,-0.1347103118896484,0.1977089047431945,9.91660986328125
1766001835376493000,12.0794931640625,-2.024001121520996,-0.2732734680175781,1.623590350151062,9.935391357421874
1766001835395274800,12.098274658203126,-2.175159215927124,0.1639881134033203,1.6119287014007568,9.9541728515625
1766001835414056200,12.11705615234375,-1.8569152355194087,0.6906185150146484,0.6235758662223816,9.972954345703124
1766001835432837600,12.135837646484376,-0.7002004384994507,0.8645505905151367,-0.3931572139263153,9.99173583984375
1766001835451619000,12.154619140625,0.3500019311904907,0.5875082015991211,-0.3434133529663086,10.010517333984374
1766001835470400500,12.173400390625,1.9792966842651367,0.0315456390380859,0.1794188618659973,10.029298583984374
1766001835489182000,12.192181884765626,3.536165714263916,-0.4204730987548828,-0.3371076583862304,10.048080078125
1766001835507963400,12.21096337890625,5.334802627563477,-0.5841522216796875,-0.8686107397079468,10.066861572265625
1766001835526745000,12.2297451171875,7.757088661193848,-1.035294532775879,-0.6149165630340576,10.085643310546875
1766001835545526500,12.248526611328124,10.389041900634766,-1.2420425415039062,0.0721878111362457,10.104424804687499
1766001835564308000,12.267307861328124,11.1525297164917,-1.007737159729004,0.4518141150474548,10.123206054687499
1766001835583089400,12.28608935546875,7.663280487060547,-0.4930534362792969,-0.0375933051109313,10.141987548828125
1766001835611261700,12.31426171875,0.1984896659851074,1.4161081314086914,-0.1903343349695205,10.170159912109375
1766001835630043100,12.333043212890624,1.3408405780792236,2.051638603210449,-1.007599949836731,10.188941406249999
1766001835648824800,12.351824951171874,-1.133568525314331,2.593448638916016,-3.174605131149292,10.207723144531249
1766001835667606300,12.370606201171874,-2.743000268936157,0.5803108215332031,-1.9628608226776123,10.226504394531249
1766001835686387700,12.3893876953125,-9.48516845703125,-4.6188483238220215,-1.2105194330215454,10.245285888671875
1766001835705169200,12.408169189453124,-18.420917510986328,-16.033710479736328,0.2907926440238952,10.264067382812499
1766001835723950600,12.42695068359375,-21.11675262451172,-22.200328826904297,-0.3771542310714721,10.282848876953125
1766001835742732000,12.44573193359375,-15.671859741210938,-4.152090072631836,4.135414123535156,10.301630126953125
1766001835761513700,12.464513671875,-11.52080535888672,37.17269134521485,10.19124984741211,10.320411865234375
1766001835780295200,12.483295166015624,-16.304813385009766,25.076637268066406,0.940821886062622,10.339193359374999
1766001835799076600,12.50207666015625,-9.95155906677246,11.74670696258545,-2.4483563899993896,10.357974853515625
1766001835817858000,12.520858154296874,-6.740234851837158,18.160625457763672,-5.764156818389893,10.376756347656249
1766001835836639500,12.539639404296874,3.408379077911377,-0.4054031372070312,-1.58705472946167,10.395537597656249
1766001835855421200,12.558421142578124,16.763473510742188,-12.324460983276367,2.157594680786133,10.414319335937499
1766001835874202600,12.57720263671875,18.638315200805664,-19.44283676147461,7.979864597320557,10.433100830078125
1766001835892984000,12.595984130859376,6.063282012939453,-7.815311431884766,7.259117126464844,10.45188232421875
1766001835911765500,12.614765625,0.3206852078437805,-7.276970863342285,-1.122549533843994,10.470663818359375
1766001835930547000,12.633546875,-2.077596664428711,-7.67708683013916,-4.032468795776367,10.489445068359375
1766001835949328600,12.65232861328125,-1.667882204055786,-8.729849815368652,0.9190338253974916,10.508226806640625
1766001835968110000,12.671110107421876,0.5024740695953369,-8.8751859664917,0.5989577174186707,10.527008300781251
1766001835986891500,12.6898916015625,1.762915849685669,-10.280710220336914,0.205061674118042,10.545789794921875
1766001836005673000,12.7086728515625,1.6406291723251345,-9.888659477233888,0.3575336933135986,10.564571044921875
1766001836024454400,12.727454345703125,1.046794295310974,-9.627922058105469,0.3830448687076568,10.5833525390625
1766001836043236000,12.746236083984376,1.2597309350967407,-9.397677421569824,1.5984106063842771,10.602134277343751
1766001836071408000,12.774408203125,1.6408320665359497,-10.21091365814209,1.8647723197937007,10.630306396484375
1766001836090189800,12.79318994140625,2.285465240478516,-10.165040969848633,0.6032208204269409,10.649088134765625
1766001836108971300,12.81197119140625,3.50964093208313,-10.216300964355469,0.0406180620193481,10.667869384765625
1766001836127752700,12.830752685546877,4.7438154220581055,-10.752809524536133,0.3989445865154266,10.686650878906251
1766001836146534100,12.8495341796875,2.941333293914795,-9.536904335021973,4.098785400390625,10.705432373046875
1766001836165315800,12.86831591796875,-23.62782287597656,-7.104508876800537,2.248864993453026,10.724214111328125
1766001836184097300,12.88709716796875,1.5709805488586426,24.163970947265625,-0.2834318280220032,10.742995361328125
1766001836202878700,12.905878662109377,-7.8648681640625,25.531478881835938,7.491000175476074,10.761776855468751
1766001836221660200,12.92466015625,4.487746238708496,22.83666229248047,3.7258797883987427,10.780558349609375
1766001836249832400,12.95283251953125,-9.65570831298828,5.633244514465332,5.194272041320801,10.808730712890625
1766001836268614000,12.97161376953125,-24.42845916748047,-10.87628936767578,2.257487535476685,10.827511962890625
1766001836287395300,12.990395263671877,-18.68817138671875,-19.74744415283203,0.0766346454620361,10.846293457031251
1766001836306177000,13.009177001953123,-9.755045890808104,-6.831257343292236,-0.4663738310337066,10.865075195312498
1766001836324958500,13.02795849609375,-1.0209519863128662,2.056884765625,0.2295748442411422,10.883856689453124
1766001836343740000,13.046739990234377,3.506648540496826,5.216011047363281,0.83170485496521,10.902638183593751
1766001836362521300,13.065521240234377,4.878241062164307,0.2169561386108398,0.7221078276634216,10.921419433593751
1766001836381302800,13.084302734375,3.766051769256592,-3.299041748046875,1.5434134006500244,10.940200927734374
1766001836400084500,13.10308447265625,3.328988552093506,-3.858660697937012,1.5558793544769287,10.958982666015624
1766001836418866000,13.121865966796875,3.3169426918029785,-2.248632907867432,1.289174199104309,10.97776416015625
1766001836437647400,13.1406474609375,2.783973932266236,-0.3523330688476562,-0.1134275496006012,10.996545654296874
1766001836456429000,13.159428955078123,2.4014334678649902,0.511500358581543,-1.7707316875457764,11.015327148437498
1766001836475210500,13.17821044921875,2.843402862548828,0.4105844497680664,-1.478248953819275,11.034108642578124
1766001836493992000,13.196991943359375,3.527437210083008,-0.2648324966430664,-0.3448544144630432,11.05289013671875
1766001836512773400,13.2157734375,4.331970691680908,-0.4146890640258789,-0.5291534662246704,11.071671630859374
1766001836531554800,13.234554931640623,4.610143184661865,-0.6458444595336914,0.3599985837936401,11.090453124999998
1766001836550336500,13.25333642578125,3.965218305587769,-1.253068923950195,0.5440186262130737,11.109234619140624
1766001836569118000,13.272117919921875,2.731574535369873,-0.7097139358520508,-0.3585181534290313,11.12801611328125
1766001836587899400,13.2908994140625,1.850417971611023,0.2251005172729492,0.102195143699646,11.146797607421874
1766001836606681000,13.30968115234375,1.2887340784072876,-0.2961025238037109,-0.024579495191574,11.165579345703124
1766001836625462500,13.328462646484375,0.7665281891822815,0.2948017120361328,-0.3514553308486938,11.18436083984375
