time,seconds_elapsed,z,y,x,t
1766001826445908500,3.148908447265625,0.0839939042925834,-0.4660134613513946,-0.5487856268882751,0.995416015625
1766001826464690000,3.16768994140625,0.0193949565291404,-0.3233765363693237,-0.2810741662979126,1.014197509765625
1766001826483471400,3.186471435546875,-0.033902995288372,-0.0993418842554092,0.0471129454672336,1.03297900390625
1766001826502252800,3.205252685546875,-0.1690568327903747,0.2202931046485901,0.4405098557472229,1.05176025390625
1766001826521034500,3.224034423828125,-0.2959639728069305,0.3775908052921295,0.8836922645568848,1.0705419921875001
1766001826539816000,3.24281591796875,-0.3575085997581482,0.8844558596611023,1.4218641519546509,1.0893234863281251
1766001826558597000,3.26159716796875,-0.4873173832893371,2.155970811843872,3.759185552597046,1.1081047363281251
1766001826577378800,3.28037890625,0.8017600178718567,3.2657594680786133,5.500761032104492,1.1268864746093752
1766001826596160300,3.29916015625,0.2917642816901207,2.8532729148864746,2.2049927711486816,1.1456677246093752
1766001826614941700,3.317941650390625,-0.0332921296358108,-0.8227584958076477,1.954690933227539,1.1644492187500002
1766001826633723100,3.33672314453125,0.6168206930160522,0.3247509896755218,1.338786482810974,1.1832307128906252
1766001826652504600,3.355504638671875,-0.588110089302063,1.631543517112732,1.5614467859268188,1.2020122070312502
1766001826671285800,3.37428564453125,-0.7735075354576111,1.9830961227416992,0.2610683441162109,1.2207932128906251
1766001826690067500,3.3930673828125,-0.1476765573024749,0.2470184415578842,-0.2260963320732116,1.2395749511718752
1766001826708848600,3.4118486328125,0.1747073233127594,-0.1169042438268661,-0.6769145131111145,1.2583562011718752
1766001826727630000,3.430630126953125,0.1956294476985931,-1.32275128364563,-1.0217477083206177,1.2771376953125002
1766001826746411800,3.449411865234375,0.0936150252819061,-1.701640248298645,-1.2573888301849363,1.2959194335937498
1766001826765193000,3.46819287109375,-0.0300850905478,-1.6970586776733398,-1.2893065214157104,1.3147004394531252
1766001826783974700,3.486974609375,-0.0613919086754322,-1.318627953529358,-1.185917615890503,1.3334821777343748
1766001826812146700,3.515146728515625,-0.0763580948114395,0.0142789641395211,-0.8818596601486206,1.3616542968749998
1766001826830928100,3.53392822265625,-0.1614210158586502,0.7163153290748596,-0.6139954328536987,1.3804357910156249
1766001826859100400,3.562100341796875,-0.1582139730453491,1.0892482995986938,-0.2583194375038147,1.4086079101562499
1766001826877881900,3.5808818359375,-0.0734564885497093,0.7819832563400269,-0.1259144991636276,1.4273894042968749
1766001826896663300,3.599663330078125,0.0319176837801933,0.4342485070228576,-0.0694095119833946,1.4461708984375
1766001826915444700,3.61844482421875,0.061239194124937,0.1616500914096832,-0.0741437152028083,1.464952392578125
1766001826934226200,3.63722607421875,0.0502436272799968,0.0976620092988014,-0.1381317973136901,1.483733642578125
1766001826953007600,3.656007568359375,0.0665842592716217,0.0735328495502471,-0.2108247131109237,1.50251513671875
1766001826971789000,3.6747890625,0.0569631420075893,-0.0790306329727172,-0.3070359230041504,1.521296630859375
1766001826990570200,3.6935703125,0.0438295491039752,-0.3383427262306213,-0.3899607956409454,1.540077880859375
1766001827009352000,3.71235205078125,0.0142026059329509,-0.5206858515739441,-0.4484511017799377,1.558859619140625
1766001827028133400,3.73113330078125,0.0151189034804701,-0.5141190886497498,-0.4733438491821289,1.577640869140625
1766001827046914800,3.749914794921875,-0.0025961752980947,-0.4114937782287597,-0.4579195082187652,1.59642236328125
1766001827065696300,3.7686962890625,-0.0132863093167543,-0.3378845751285553,-0.3898080885410309,1.615203857421875
1766001827084477700,3.787477783203125,-0.019700389355421,-0.2486983239650726,-0.2525162398815155,1.6339853515625
1766001827103259100,3.806259033203125,-0.0184786599129438,-0.1605810821056366,-0.0836121141910553,1.6527666015625
1766001827122040600,3.82504052734375,0.0146607551723718,0.0260381121188402,0.1750891208648681,1.671548095703125
1766001827140822000,3.843822021484375,0.0071776611730456,0.1445458829402923,0.5814669132232666,1.69032958984375
1766001827159603500,3.862603515625,0.0801760032773017,0.1857792437076568,1.066188097000122,1.709111083984375
1766001827187775500,3.890775390625,0.277790755033493,0.3125337064266205,1.6778165102005005,1.737282958984375
1766001827206557000,3.909556884765625,0.2000582218170166,0.630641520023346,1.8908555507659912,1.756064453125
1766001827225338400,3.92833837890625,0.1684459596872329,1.3844486474990845,2.2610397338867188,1.774845947265625
1766001827244119800,3.947119873046875,-0.0108428495004773,1.1885137557983398,2.5626540184021,1.79362744140625
1766001827262901200,3.9659013671875,0.1826485693454742,0.7662535309791565,2.545549869537353,1.812408935546875
1766001827291073500,3.994073486328125,0.4688387215137481,-0.5492438077926636,2.157192707061768,1.8405810546875
1766001827309855000,4.01285498046875,-0.2209803313016891,-0.936684787273407,1.8971168994903564,1.8593625488281247
1766001827328636400,4.031636474609375,-0.2296851575374603,-0.7856484651565552,1.114599108695984,1.8781440429687497
1766001827347417900,4.05041796875,0.5668824911117554,-0.3804923892021179,0.719369649887085,1.8969255371093747
1766001827375590000,4.07858984375,0.8694133162498474,0.0990364551544189,-0.1282052397727966,1.9250974121093742
1766001827394371300,4.097371337890625,-0.7319687008857727,0.2502254843711853,-1.3395501375198364,1.9438789062499993
1766001827413152800,4.11615283203125,-0.4146244823932647,-0.4180605709552765,-2.0289111137390137,1.9626604003906243
1766001827431934200,4.134934326171875,-0.0265726186335086,-0.8071814775466919,-2.899851560592652,1.9814418945312493
1766001827450715600,4.153715576171875,-0.66645348072052,-1.0559561252593994,-3.7298638820648193,2.0002231445312493
1766001827469497000,4.1724970703125,-0.6947059631347656,-1.7673081159591677,-4.733056545257568,2.0190046386718743
1766001827488278500,4.191278564453125,-0.8784235715866089,-2.5482988357543945,-5.293677806854248,2.0377861328124993
1766001827507060000,4.21006005859375,-1.1517854928970337,-3.187263250350952,-4.468552112579346,2.0565676269531243
1766001827525841400,4.22884130859375,-0.119271345436573,-0.7479275465011597,-2.4786601066589355,2.0753488769531243
1766001827544622800,4.247622802734375,0.3208567202091217,1.6084833145141602,-1.1984403133392334,2.0941303710937493
1766001827563404300,4.266404296875,-0.0595593154430389,1.3676499128341677,-0.6013200283050537,2.1129118652343744
1766001827582185700,4.285185791015625,0.2060141414403915,-0.4119519293308258,-0.1851683855056762,2.1316933593749994
1766001827600967200,4.30396728515625,0.3095557391643524,-1.5951969623565674,-0.0358119495213031,2.1504748535156244
1766001827619748600,4.32274853515625,0.208610326051712,-1.008919596672058,-0.1005636155605316,2.1692561035156244
1766001827638530000,4.341530029296875,-0.0088575389236211,-0.3438405096530914,-0.1915824711322784,2.1880375976562494
1766001827657311500,4.3603115234375,0.0114537142217159,-0.4913643598556518,-0.2329685539007187,2.2068190917968744
1766001827676093200,4.37909326171875,-0.0174096468836069,-0.4895317554473877,-0.1970802545547485,2.2256008300781245
1766001827694874400,4.397874267578125,-0.0980437994003295,0.0840702652931213,-0.0235946513712406,2.2443818359374994
1766001827713655800,4.41665576171875,-0.1252272725105285,0.6561451554298401,0.2377027571201324,2.2631633300781244
1766001827732437500,4.4354375,-0.088575392961502,0.8685733675956726,0.4863247275352478,2.2819450683593745
1766001827751219000,4.454218994140625,-0.0739146396517753,1.1361321210861206,0.761366605758667,2.3007265624999995
1766001827779391000,4.482390869140625,-0.1834121495485305,1.5406773090362549,1.3054944276809692,2.3288984374999995
1766001827798172400,4.50117236328125,-0.2765690386295318,2.088623046875,2.719951868057251,2.3476799316406245
1766001827816953900,4.519953857421875,0.0041233371011912,2.838917732238769,5.85032844543457,2.3664614257812495
1766001827835735300,4.5387353515625,-0.1362228507641703,2.703763961791992,2.16437029838562,2.3852429199218745
1766001827854516700,4.557516845703125,-0.3303251266479492,1.364748239517212,2.1159591674804688,2.4040244140624996
1766001827873298200,4.576298095703125,0.7124210596084595,-0.4232529401779175,1.7570761442184448,2.4228056640624995
1766001827892079600,4.59507958984375,0.0757472291588783,0.3030652999877929,2.006614446640014,2.4415871582031246
1766001827910861000,4.613861083984375,-0.4601338803768158,0.4762454628944397,0.151112675666809,2.4603686523437496
1766001827929642500,4.632642578125,-0.1974620372056961,-0.238313615322113,-0.5397753715515137,2.4791501464843746
1766001827948424000,4.651423828125,-0.3197877109050751,-0.3603338599205017,-1.198898434638977,2.4979313964843746
1766001827967205400,4.670205322265625,0.002443459117785,-0.2919169962406158,-1.5351794958114624,2.5167128906249996
1766001827985986800,4.68898681640625,0.4204276800155639,-1.0944405794143677,-1.800600290298462,2.5354943847656246
1766001828004768300,4.707768310546875,0.1960875988006591,-1.3542108535766602,-2.004476308822632,2.5542758789062496
1766001828023549700,4.7265498046875,-0.4563159942626953,-0.9229403138160706,-2.052276611328125,2.5730573730468747
1766001828042331100,4.7453310546875,-0.5645917654037476,-0.4056905806064605,-1.920940637588501,2.5918386230468746
1766001828061112600,4.764112548828125,-0.2006690800189972,0.0863610059022903,-1.715842843055725,2.6106201171874996
1766001828079894000,4.78289404296875,-0.0268780495971441,0.0967457070946693,-1.5021928548812866,2.6294016113281247
1766001828098675500,4.801675537109375,-0.0427605360746383,-0.0771980360150337,-1.3128247261047363,2.6481831054687497
1766001828117457000,4.820456787109375,0.0403170771896839,0.4221839308738708,-1.2179880142211914,2.6669643554687497
1766001828136238300,4.83923828125,0.0226019974797964,0.8235220909118652,-1.2442551851272583,2.6857458496093747
1766001828155019800,4.858019775390625,-0.1426369249820709,0.1651625633239746,-1.056414246559143,2.7045273437499997
1766001828173801200,4.87680126953125,-0.1372918635606765,-0.6170498132705688,-0.4536434710025787,2.7233088378906247
1766001828192582700,4.895582763671875,0.1307250559329986,-0.784426748752594,0.0008399390499107,2.7420903320312497
1766001828211364000,4.914364013671875,0.1997527778148651,-0.0943022519350051,0.2716057598590851,2.7608715820312497
1766001828239536400,4.942536376953125,0.0135917412117123,0.330706924200058,0.5316814184188843,2.7890439453124998
1766001828258317800,4.96131787109375,0.1067486181855201,0.0164169911295175,0.6459131240844727,2.807825439453125
1766001828277099300,4.980099365234375,0.2383899837732315,-0.3203222155570984,0.7786235213279724,2.82660693359375
1766001828295880700,4.998880615234375,0.1788306683301925,-0.3132972717285156,0.9165262579917908,2.84538818359375
1766001828314662100,5.017662109375,0.1082757785916328,0.1369100660085678,1.1582759618759155,2.864169677734375
1766001828333443600,5.036443603515625,0.1366809904575348,0.3279580175876617,1.433470606803894,2.882951171875
1766001828352225000,5.05522509765625,0.1986837685108184,0.231899544596672,1.6601014137268066,2.901732666015625
1766001828371006500,5.07400634765625,0.2762635946273803,0.1877645552158355,1.7688353061676023,2.920513916015625
1766001828389788000,5.092787841796875,0.2541197538375854,0.1033125072717666,1.782885193824768,2.93929541015625
1766001828417960000,5.1209599609375,0.1053741723299026,0.0697149410843849,1.830532670021057,2.967467529296875
1766001828436741600,5.13974169921875,0.0482583157718181,0.2013563066720962,1.860923171043396,2.986249267578125
1766001828455522800,5.158522705078125,0.0768162459135055,0.4967094361782074,1.9856923818588257,3.0050302734375
1766001828474304300,5.17730419921875,0.1997527778148651,0.4328740537166595,1.9081125259399412,3.023811767578125
1766001828493086000,5.1960859375,0.2290742993354797,0.3885863721370697,1.7262275218963623,3.042593505859375
