time,seconds_elapsed,z,y,x,t
1766001827450715600,4.153715576171875,-15.278729438781738,8.992521286010742,0.2576211094856262,2.0096137695312493
1766001827469497000,4.1724970703125,-7.668128490447998,12.835675239562988,-2.3565800189971924,2.0283952636718743
1766001827488278500,4.191278564453125,-1.4229562282562256,5.9870195388793945,-0.1364632248878479,2.0471767578124993
1766001827507060000,4.21006005859375,6.067455291748047,-7.675400733947754,5.648296356201172,2.0659582519531243
1766001827525841400,4.22884130859375,13.405033111572266,-13.111295700073242,4.794692039489746,2.0847395019531243
1766001827544622800,4.247622802734375,10.48003101348877,-9.738454818725586,4.697576999664307,2.1035209960937493
1766001827563404300,4.266404296875,7.579688549041748,-8.953537940979004,1.721475601196289,2.1223024902343743
1766001827582185700,4.285185791015625,6.048698902130127,-10.941883087158203,-3.490628242492676,2.1410839843749994
1766001827600967200,4.30396728515625,2.94010853767395,-9.966931343078612,-2.650740146636963,2.1598654785156244
1766001827619748600,4.32274853515625,-0.0715610980987548,-10.563456535339355,1.5315115451812744,2.1786467285156244
1766001827638530000,4.341530029296875,-0.4641810059547424,-10.470373153686523,1.5830897092819214,2.1974282226562494
1766001827657311500,4.3603115234375,0.323175847530365,-10.04795265197754,-0.702807605266571,2.2162097167968744
1766001827676093200,4.37909326171875,1.1504545211791992,-9.682210922241213,1.0754441022872925,2.2349914550781245
1766001827694874400,4.397874267578125,1.86071252822876,-9.961297035217283,2.5201292037963867,2.2537724609374994
1766001827713655800,4.41665576171875,2.204817533493042,-10.14708137512207,1.5002676248550415,2.2725539550781244
1766001827732437500,4.4354375,2.6534204483032227,-9.946619033813477,0.2412800788879394,2.2913356933593745
1766001827751219000,4.454218994140625,3.06843900680542,-9.76121711730957,1.6383635997772217,2.3101171874999995
1766001827779391000,4.482390869140625,3.4883899688720703,-10.439948081970217,2.005210399627685,2.3382890624999995
1766001827798172400,4.50117236328125,3.4882149696350098,-9.606032371520996,1.8349026441574097,2.3570705566406245
1766001827816953900,4.519953857421875,8.256216049194336,-13.693717956542969,3.690406322479248,2.3758520507812495
1766001827835735300,4.5387353515625,-6.706034183502197,12.7520170211792,-1.869958758354187,2.3946335449218745
1766001827854516700,4.557516845703125,2.013166904449463,41.44560623168945,4.495811939239502,2.4134150390624995
1766001827873298200,4.576298095703125,-4.75798225402832,7.263498306274414,-2.75542426109314,2.4321962890624995
1766001827892079600,4.59507958984375,1.218256950378418,17.831069946289062,-1.3557807207107544,2.4509777832031245
1766001827910861000,4.613861083984375,-20.676729202270508,30.3018741607666,-0.8690091967582703,2.4697592773437496
1766001827929642500,4.632642578125,-21.4837589263916,-2.0122532844543457,1.3403812646865845,2.4885407714843746
1766001827948424000,4.651423828125,-18.51519012451172,-14.519110679626465,0.2589134871959686,2.5073220214843746
1766001827967205400,4.670205322265625,-9.897184371948242,-13.316495895385742,-3.635059595108032,2.5261035156249996
1766001827985986800,4.68898681640625,-2.9251413345336914,-1.7693896293640137,-1.8319684267044067,2.5448850097656246
1766001828004768300,4.707768310546875,-0.6048812866210938,6.216390609741211,2.08958101272583,2.5636665039062496
1766001828023549700,4.7265498046875,0.5012927055358887,3.8362512588500977,5.805169105529785,2.5824479980468746
1766001828042331100,4.7453310546875,1.3633249998092651,-3.9901123046875,3.746693134307861,2.6012292480468746
1766001828061112600,4.764112548828125,2.2809808254241943,-7.992244243621826,0.0215851068496704,2.6200107421874996
1766001828079894000,4.78289404296875,3.7329859733581534,-6.687294006347656,-1.4963380098342896,2.6387922363281247
1766001828098675500,4.801675537109375,4.046572208404541,-3.1445841789245605,-0.985056221485138,2.6575737304687497
1766001828117457000,4.820456787109375,2.340439319610596,0.9014616012573242,-1.122862696647644,2.6763549804687496
1766001828136238300,4.83923828125,0.1021872758865356,6.191356658935547,-2.64273452758789,2.6951364746093747
1766001828155019800,4.858019775390625,2.6731672286987305,5.834399223327637,-2.3993968963623047,2.7139179687499997
1766001828173801200,4.87680126953125,9.712834358215332,-2.9664530754089355,-1.4565376043319702,2.7326994628906247
1766001828201973500,4.904973388671875,10.595727920532228,-1.2993860244750977,1.4701415300369265,2.7608715820312497
1766001828220755000,4.9237548828125,4.897675514221191,1.0995473861694336,2.4809415340423584,2.7796530761718747
1766001828248927000,4.951927001953125,0.8244398832321167,-0.5022821426391602,-1.1000797748565674,2.8078251953124997
1766001828277099300,4.980099365234375,2.410057544708252,-0.3069753646850586,-1.710248947143555,2.83599755859375
1766001828295880700,4.998880615234375,3.041339874267578,-0.6282405853271484,0.524479866027832,2.8547788085937498
1766001828314662100,5.017662109375,4.184746265411377,-0.4571380615234375,0.5582395792007446,2.873560302734375
1766001828333443600,5.036443603515625,5.255239963531494,-0.1497535705566406,-0.3053411543369293,2.892341796875
1766001828352225000,5.05522509765625,5.417559623718262,0.0819520950317382,-1.089956521987915,2.911123291015625
1766001828371006500,5.07400634765625,3.150608539581299,0.8064441680908203,-1.643234133720398,2.929904541015625
1766001828389788000,5.092787841796875,0.9759130477905272,1.237837791442871,-1.8837242126464844,2.94868603515625
1766001828417960000,5.1209599609375,1.1440842151641846,-0.2401285171508789,-0.00283744931221,2.976858154296875
1766001828436741600,5.13974169921875,1.6603869199752808,-1.593904972076416,1.3163257837295532,2.995639892578125
1766001828455522800,5.158522705078125,2.478125095367432,-1.938475608825684,1.2428096532821655,3.0144208984375
1766001828474304300,5.17730419921875,2.14734411239624,-0.958444118499756,1.2469184398651123,3.033202392578125
1766001828493086000,5.1960859375,-1.367257595062256,-0.6229133605957031,1.4037556648254397,3.051984130859375
1766001828511867100,5.2148671875,-3.20246696472168,-5.113490104675293,1.6671552658081057,3.070765380859375
1766001828530648600,5.233648681640625,-5.439614295959473,-8.463010787963867,-0.6223037242889404,3.089546875
1766001828549430300,5.25243017578125,-8.941274642944336,-7.357037544250488,-1.122707724571228,3.108328369140625
1766001828568211500,5.27121142578125,-14.86781120300293,-4.629781723022461,0.454717755317688,3.127109619140625
1766001828586993000,5.289992919921875,-16.190433502197266,0.4375667572021484,-0.8518375158309937,3.14589111328125
1766001828605774600,5.308774658203125,-16.53274154663086,19.70978164672852,3.8328757286071777,3.1646728515625
1766001828624555800,5.3275556640625,-23.207015991210938,18.89437866210937,1.9871344566345213,3.183453857421875
1766001828643337200,5.346337158203125,-20.43168258666992,3.646017074584961,2.198587417602539,3.2022353515625
1766001828662119000,5.365118896484375,-13.66854763031006,11.663639068603516,0.2645920515060425,3.221017089843749
1766001828680900000,5.383900146484375,-5.971103668212891,17.381330490112305,-0.9883175492286682,3.23979833984375
1766001828699681800,5.402681884765625,1.0644930601119995,0.9085330963134766,2.9584107398986816,3.258580078124999
1766001828718463200,5.421463134765625,13.302300453186035,-15.66480827331543,2.4927027225494385,3.277361328124999
1766001828737244700,5.44024462890625,18.37209892272949,-16.8939266204834,-0.9505407810211182,3.296142822265624
1766001828756026000,5.459026123046875,14.539304733276367,-8.47439193725586,2.839974880218506,3.314924316406249
1766001828774807600,5.4778076171875,8.858893394470215,-13.49899959564209,0.282426655292511,3.333705810546874
1766001828793589000,5.496589111328125,0.8355917930603027,-8.987961769104004,-1.23539400100708,3.3524873046874992
1766001828812370400,5.515370361328125,-3.7559831142425537,-9.51490306854248,1.5190987586975098,3.371268554687499
1766001828831151900,5.53415185546875,-3.530731201171875,-9.128698348999023,0.2609010338783264,3.390050048828124
1766001828849933300,5.552933349609375,-0.7037636041641235,-9.78380012512207,-0.2800553441047668,3.4088315429687492
1766001828878105600,5.581105712890625,3.045950412750244,-10.244460105895996,0.3240580558776855,3.4370039062499993
1766001828896887000,5.599886962890625,3.6590728759765625,-10.342287063598633,0.0948477983474731,3.4557851562499993
1766001828915668500,5.61866845703125,2.761263608932495,-9.863848686218262,0.6776334643363953,3.4745666503906243
1766001828934450000,5.637449951171875,2.281315803527832,-9.64337158203125,0.7099061608314514,3.4933481445312493
1766001828953231400,5.6562314453125,2.8074188232421875,-9.603344917297363,0.3774348497390747,3.5121296386718743
1766001828972012800,5.6750126953125,3.5405285358428955,-9.822050094604492,-0.275118887424469,3.5309108886718743
1766001828990794200,5.693794189453125,3.070868015289306,-8.802141189575195,1.3551088571548462,3.5496923828124993
1766001829009575700,5.71257568359375,0.2072200775146484,-11.101219177246094,3.150500059127808,3.5684738769531243
1766001829028357000,5.731357177734375,-23.903614044189453,3.106534004211426,-3.846868991851807,3.5872553710937494
1766001829047138600,5.750138671875,-0.0465688705444335,29.687355041503903,-8.659226417541504,3.6060368652343744
1766001829065920000,5.768919921875,5.476236343383789,4.819637298583984,1.536983847618103,3.6248181152343744
1766001829084701400,5.787701416015625,-0.0465688705444335,56.0639877319336,-1.147406816482544,3.6435996093749994
1766001829103483000,5.80648291015625,-28.36457252502441,13.866849899291992,-6.570272445678711,3.6623811035156244
1766001829122264300,5.825264404296875,-14.4282865524292,-16.44194984436035,15.562480926513672,3.6811625976562494
1766001829141045800,5.844045654296875,-14.4282865524292,-28.05731201171875,7.7345290184021,3.6999438476562494
1766001829159827500,5.862827392578125,-8.996774673461914,-0.2963895797729492,-7.884273052215576,3.7187255859374995
1766001829178608600,5.881608642578125,-0.829444408416748,20.80036354064941,-4.192889213562012,3.7375068359374994
1766001829197390000,5.90039013671875,5.71680212020874,5.59123420715332,5.2785468101501465,3.7562883300781245
1766001829216171800,5.919171875,5.598870277404785,-11.065352439880373,-5.427856922149658,3.7750700683593745
1766001829234953200,5.937953125,6.650371551513672,-10.967865943908691,-10.068140983581545,3.7938513183593745
1766001829253734700,5.956734619140625,7.009341239929199,-1.686701774597168,-1.9637761116027832,3.8126328124999995
1766001829272516000,5.97551611328125,4.304572105407715,2.8312902450561523,3.0798676013946533,3.8314143066406245
1766001829291297500,5.994297607421875,0.9492470622062684,2.139859199523926,3.9241185188293457,3.8501958007812496
1766001829310079000,6.013078857421875,0.1433497667312622,-0.5205802917480469,0.3746522665023803,3.8689770507812495
1766001829328860400,6.0318603515625,0.6181630492210388,-0.5133771896362305,-2.8987951278686523,3.8877585449218746
1766001829347641900,6.050641845703125,1.276873230934143,1.0312767028808594,-2.802576780319214,3.9065400390624996
1766001829375814000,6.07881396484375,2.112525463104248,0.3496408462524414,1.8649868965148928,3.9347121582031246
1766001829394595300,6.09759521484375,2.5606589317321777,-0.7982273101806641,1.4658753871917725,3.9534934082031246
1766001829413376800,6.116376708984375,2.1726596355438232,-1.0858402252197266,0.0637560486793518,3.9722749023437496
1766001829432158200,6.135158203125,2.046542167663574,-0.3163976669311523,-0.5407133102416992,3.9910563964843746
1766001829450939600,6.153939697265625,2.3829565048217773,0.3308095932006836,-0.4978250861167907,4.009837890625
1766001829469721000,6.17272119140625,3.416116714477539,-0.2822332382202148,-0.0177904963493347,4.028619384765625
1766001829488502500,6.19150244140625,5.077295780181885,-0.4775285720825195,-0.3264852166175842,4.047400634765625
