time,seconds_elapsed,z,y,x,t
1766001825450492400,2.153492431640625,-0.217773288488388,-0.2045633494853973,-0.0269544087350368,0.0
1766001825469273900,2.17227392578125,0.296269416809082,-0.3343721032142639,-0.7047088742256165,0.01878149414062502
1766001825488055300,2.19105517578125,0.1394298821687698,-0.4250855147838592,-1.2628865242004397,0.03756274414062499
1766001825506836700,2.209836669921875,0.0155770517885684,-1.0131956338882446,-1.5994731187820437,0.056344238281250014
1766001825525618200,2.2286181640625,0.0662788301706314,-1.6239076852798462,-1.8641302585601809,0.07512573242187504
1766001825544399600,2.247399658203125,-0.323911041021347,-1.083903193473816,-1.994855284690857,0.09390722656250006
1766001825563181000,2.26618115234375,-0.600785493850708,-0.3994292020797729,-1.909792423248291,0.11268872070312508
1766001825581962500,2.28496240234375,-0.4864010810852051,0.3215439617633819,-1.7631847858428955,0.13146997070312505
1766001825600744000,2.303743896484375,-0.2635881602764129,0.7453314065933228,-1.5516729354858398,0.15025146484375007
1766001825619525400,2.322525390625,-0.1343902498483657,0.4050796926021576,-1.2691479921340942,0.1690329589843751
1766001825638306800,2.341306884765625,-0.0337502807378768,0.029245151206851,-1.0432807207107544,0.1878144531250001
1766001825657088300,2.360088134765625,0.1081230640411377,0.3719402849674225,-0.8759037256240845,0.20659570312500009
1766001825675869700,2.37886962890625,0.0797178521752357,1.089859127998352,-0.8960622549057007,0.2253771972656251
1766001825694651100,2.397651123046875,-0.0638353675603866,1.204548954963684,-0.9551634192466736,0.24415869140625013
1766001825713432600,2.4164326171875,-0.061239194124937,0.4565450549125671,-0.7088322043418884,0.26294018554687515
1766001825732214000,2.435214111328125,0.0931568816304206,-0.7867174744606018,-0.3433823585510254,0.28172167968750017
1766001825750995500,2.453995361328125,0.1766926348209381,-0.9670752882957458,-0.0746018588542938,0.30050292968750014
1766001825769777000,2.47277685546875,0.1108719557523727,-0.2497673332691192,0.0990364551544189,0.31928442382812516
1766001825788558300,2.491558349609375,0.0760526657104492,0.5072468519210815,0.2401462197303772,0.3380659179687502
1766001825807339800,2.51033984375,0.1140789985656738,0.6164389252662659,0.345062255859375,0.3568474121093752
1766001825826121200,2.529121337890625,0.1131627038121223,0.2890154123306274,0.4134790897369385,0.3756289062500002
1766001825844902700,2.547902587890625,0.1571449637413025,0.0605519711971282,0.5345830321311951,0.3944101562500002
1766001825863683800,2.566683837890625,0.1409570425748825,0.1049923822283744,0.6595048904418945,0.41319140625000017
1766001825882465500,2.585465576171875,0.1117882579565048,0.2099084109067917,0.9563851952552797,0.4319731445312498
1766001825901246700,2.604246826171875,0.1559232324361801,0.081015944480896,1.358334183692932,0.4507543945312502
1766001825920028200,2.623028076171875,0.1941022872924804,0.0184023007750511,1.7381393909454346,0.4695356445312502
1766001825938809900,2.641809814453125,0.2118173688650131,0.4018726646900177,2.016693592071533,0.4883173828124998
1766001825957591000,2.660591064453125,0.114689864218235,1.0301470756530762,2.211864948272705,0.5070986328125002
1766001825976372500,2.67937255859375,0.0594066008925437,1.1410191059112549,2.3829071521759038,0.5258801269531248
1766001825995154200,2.698154296875,0.2328922003507614,0.8354339599609375,2.4951536655426025,0.5446618652343749
1766001826013935400,2.716935302734375,0.4146244823932647,0.3821722865104675,2.462625026702881,0.5634428710937498
1766001826032716800,2.735716796875,0.3472766280174255,-0.1555414497852325,2.339993953704834,0.5822243652343748
1766001826051498200,2.754498291015625,0.0555886961519718,-0.5654317140579224,1.828241944313049,0.6010058593749998
1766001826070279700,2.77327978515625,-0.4564687013626098,-0.6399571895599365,1.514715552330017,0.6197873535156249
1766001826089061000,2.79206103515625,0.019700389355421,-0.0562759190797805,0.941724419593811,0.6385686035156248
1766001826107842600,2.810842529296875,0.7249437570571899,-0.1870009750127792,0.4583776593208313,0.6573500976562499
1766001826126624000,2.8296240234375,0.929888904094696,-0.1932623386383056,-0.3224602341651916,0.6761315917968749
1766001826145405400,2.848405517578125,0.2932150959968567,-0.2558759748935699,-1.1755329370498655,0.6949130859374999
1766001826164187000,2.867186767578125,-0.7643445730209351,-0.1132390573620796,-2.3016622066497803,0.7136943359374999
1766001826182968300,2.88596826171875,-0.0679587051272392,-1.0677152872085571,-3.021566390991211,0.7324758300781249
1766001826201749800,2.904749755859375,-0.1627954691648483,-1.9241477251052856,-4.069352149963379,0.7512573242187499
1766001826220531200,2.92353125,-0.3746128380298614,-2.6382486820220947,-5.224955558776856,0.7700388183593749
1766001826239312600,2.942312744140625,-1.402698278427124,-3.209254503250122,-5.472661018371582,0.7888203125
1766001826258094000,2.961093994140625,-0.9975422024726868,-0.4524217247962951,-2.985983371734619,0.8076015624999999
1766001826276875500,2.97987548828125,0.3735437989234924,3.0534839630126958,-0.5269472599029541,0.826383056640625
1766001826295657000,2.998656982421875,0.0478001683950424,2.370689868927002,0.1666897237300872,0.84516455078125
1766001826314438400,3.0174384765625,0.2458730787038803,0.0527634471654892,0.5872701406478882,0.863946044921875
1766001826333219800,3.0362197265625,0.4202749729156494,-0.6181188225746155,0.3216966688632965,0.882727294921875
1766001826352001300,3.055001220703125,0.2159406989812851,-0.3362047076225281,-0.0312304627150297,0.9015087890625
1766001826370782700,3.07378271484375,0.1062904745340347,-0.3922515511512756,-0.3841575980186462,0.920290283203125
1766001826389564200,3.092564208984375,0.1408043354749679,-0.53931725025177,-0.6136900186538696,0.93907177734375
1766001826408345600,3.111345703125,0.1406516134738922,-0.5802451968193054,-0.7263945937156677,0.957853271484375
1766001826427127000,3.130126953125,0.1119409725069999,-0.589560866355896,-0.7086794972419739,0.976634521484375
1766001826445908500,3.148908447265625,0.0839939042925834,-0.4660134613513946,-0.5487856268882751,0.995416015625
1766001826464690000,3.16768994140625,0.0193949565291404,-0.3233765363693237,-0.2810741662979126,1.014197509765625
1766001826483471400,3.186471435546875,-0.033902995288372,-0.0993418842554092,0.0471129454672336,1.03297900390625
1766001826502252800,3.205252685546875,-0.1690568327903747,0.2202931046485901,0.4405098557472229,1.05176025390625
1766001826521034500,3.224034423828125,-0.2959639728069305,0.3775908052921295,0.8836922645568848,1.0705419921875001
1766001826539816000,3.24281591796875,-0.3575085997581482,0.8844558596611023,1.4218641519546509,1.0893234863281251
1766001826558597000,3.26159716796875,-0.4873173832893371,2.155970811843872,3.759185552597046,1.1081047363281251
1766001826577378800,3.28037890625,0.8017600178718567,3.2657594680786133,5.500761032104492,1.1268864746093752
1766001826596160300,3.29916015625,0.2917642816901207,2.8532729148864746,2.2049927711486816,1.1456677246093752
1766001826614941700,3.317941650390625,-0.0332921296358108,-0.8227584958076477,1.954690933227539,1.1644492187500002
1766001826633723100,3.33672314453125,0.6168206930160522,0.3247509896755218,1.338786482810974,1.1832307128906252
1766001826652504600,3.355504638671875,-0.588110089302063,1.631543517112732,1.5614467859268188,1.2020122070312502
1766001826671285800,3.37428564453125,-0.7735075354576111,1.9830961227416992,0.2610683441162109,1.2207932128906251
1766001826690067500,3.3930673828125,-0.1476765573024749,0.2470184415578842,-0.2260963320732116,1.2395749511718752
1766001826708848600,3.4118486328125,0.1747073233127594,-0.1169042438268661,-0.6769145131111145,1.2583562011718752
1766001826727630000,3.430630126953125,0.1956294476985931,-1.32275128364563,-1.0217477083206177,1.2771376953125002
1766001826746411800,3.449411865234375,0.0936150252819061,-1.701640248298645,-1.2573888301849363,1.2959194335937498
1766001826765193000,3.46819287109375,-0.0300850905478,-1.6970586776733398,-1.2893065214157104,1.3147004394531252
1766001826783974700,3.486974609375,-0.0613919086754322,-1.318627953529358,-1.185917615890503,1.3334821777343748
1766001826812146700,3.515146728515625,-0.0763580948114395,0.0142789641395211,-0.8818596601486206,1.3616542968749998
1766001826830928100,3.53392822265625,-0.1614210158586502,0.7163153290748596,-0.6139954328536987,1.3804357910156249
1766001826859100400,3.562100341796875,-0.1582139730453491,1.0892482995986938,-0.2583194375038147,1.4086079101562499
1766001826877881900,3.5808818359375,-0.0734564885497093,0.7819832563400269,-0.1259144991636276,1.4273894042968749
1766001826896663300,3.599663330078125,0.0319176837801933,0.4342485070228576,-0.0694095119833946,1.4461708984375
1766001826915444700,3.61844482421875,0.061239194124937,0.1616500914096832,-0.0741437152028083,1.464952392578125
1766001826934226200,3.63722607421875,0.0502436272799968,0.0976620092988014,-0.1381317973136901,1.483733642578125
1766001826953007600,3.656007568359375,0.0665842592716217,0.0735328495502471,-0.2108247131109237,1.50251513671875
1766001826971789000,3.6747890625,0.0569631420075893,-0.0790306329727172,-0.3070359230041504,1.521296630859375
1766001826990570200,3.6935703125,0.0438295491039752,-0.3383427262306213,-0.3899607956409454,1.540077880859375
1766001827009352000,3.71235205078125,0.0142026059329509,-0.5206858515739441,-0.4484511017799377,1.558859619140625
1766001827028133400,3.73113330078125,0.0151189034804701,-0.5141190886497498,-0.4733438491821289,1.577640869140625
1766001827046914800,3.749914794921875,-0.0025961752980947,-0.4114937782287597,-0.4579195082187652,1.59642236328125
1766001827065696300,3.7686962890625,-0.0132863093167543,-0.3378845751285553,-0.3898080885410309,1.615203857421875
1766001827084477700,3.787477783203125,-0.019700389355421,-0.2486983239650726,-0.2525162398815155,1.6339853515625
1766001827103259100,3.806259033203125,-0.0184786599129438,-0.1605810821056366,-0.0836121141910553,1.6527666015625
1766001827122040600,3.82504052734375,0.0146607551723718,0.0260381121188402,0.1750891208648681,1.671548095703125
1766001827140822000,3.843822021484375,0.0071776611730456,0.1445458829402923,0.5814669132232666,1.69032958984375
1766001827159603500,3.862603515625,0.0801760032773017,0.1857792437076568,1.066188097000122,1.709111083984375
1766001827187775500,3.890775390625,0.277790755033493,0.3125337064266205,1.6778165102005005,1.737282958984375
1766001827206557000,3.909556884765625,0.2000582218170166,0.630641520023346,1.8908555507659912,1.756064453125
1766001827225338400,3.92833837890625,0.1684459596872329,1.3844486474990845,2.2610397338867188,1.774845947265625
1766001827244119800,3.947119873046875,-0.0108428495004773,1.1885137557983398,2.5626540184021,1.79362744140625
1766001827262901200,3.9659013671875,0.1826485693454742,0.7662535309791565,2.545549869537353,1.812408935546875
1766001827291073500,3.994073486328125,0.4688387215137481,-0.5492438077926636,2.157192707061768,1.8405810546875
1766001827309855000,4.01285498046875,-0.2209803313016891,-0.936684787273407,1.8971168994903564,1.8593625488281247
1766001827328636400,4.031636474609375,-0.2296851575374603,-0.7856484651565552,1.114599108695984,1.8781440429687497
1766001827347417900,4.05041796875,0.5668824911117554,-0.3804923892021179,0.719369649887085,1.8969255371093747
1766001827375590000,4.07858984375,0.8694133162498474,0.0990364551544189,-0.1282052397727966,1.9250974121093742
1766001827394371300,4.097371337890625,-0.7319687008857727,0.2502254843711853,-1.3395501375198364,1.9438789062499993
1766001827413152800,4.11615283203125,-0.4146244823932647,-0.4180605709552765,-2.0289111137390137,1.9626604003906243
1766001827431934200,4.134934326171875,-0.0265726186335086,-0.8071814775466919,-2.899851560592652,1.9814418945312493
1766001827450715600,4.153715576171875,-0.66645348072052,-1.0559561252593994,-3.7298638820648193,2.0002231445312493
1766001827469497000,4.1724970703125,-0.6947059631347656,-1.7673081159591677,-4.733056545257568,2.0190046386718743
