time,seconds_elapsed,z,y,x,t
1766001246405766700,3.2217666015625,-1.1749296188354492,2.3941564559936523,-1.083177089691162,0.0
1766001246424546800,3.240546875,-0.8265790939331055,2.7165756225585938,-1.2159099578857422,0.018780273437500217
1766001246443327200,3.2593271484375,-0.1284692287445068,1.8761911392211916,-1.4024770259857178,0.03756054687499999
1766001246462107400,3.278107421875,-0.4759082794189453,0.4988737106323242,-1.1519017219543457,0.056340820312500206
1766001246480887600,3.296887451171875,-1.3390876054763794,-1.1943120956420898,-0.6310393810272217,0.07512084960937493
1766001246499667700,3.315667724609375,-1.8457343578338623,-2.6257543563842773,0.038137674331665,0.09390112304687515
1766001246518448000,3.3344482421875,-1.6578389406204224,-2.8459415435791016,1.0807851552963257,0.11268164062499997
1766001246537228300,3.353228271484375,-1.777883768081665,-2.8967208862304688,2.4286985397338867,0.13146166992187514
1766001246556008400,3.372008544921875,-2.5039427280426025,-3.574460029602051,4.844635486602783,0.1502419433593749
1766001246574788600,3.39078857421875,-3.113246440887451,-5.563539981842041,6.048463344573975,0.16902197265625007
1766001246593569000,3.409569091796875,-3.0549426078796387,-6.281882286071777,3.847081184387207,0.1878024902343749
1766001246612349200,3.42834912109375,-1.1665936708450315,-6.109257698059082,1.885303616523743,0.20658251953125006
1766001246631129300,3.44712939453125,-0.5103904008865356,-5.584627151489258,0.9879361391067504,0.22536279296874984
1766001246649909500,3.465909423828125,-0.570473313331604,-3.3551506996154785,0.7851142883300781,0.244142822265625
1766001246668690000,3.48468994140625,0.4334182739257812,2.111557960510254,0.279231309890747,0.26292333984375027
1766001246687470000,3.503469970703125,0.2456912994384765,6.959651947021484,-0.4782348871231079,0.281703369140625
1766001246706250200,3.522250244140625,1.0877423286437988,7.494595527648926,-2.382113456726074,0.3004836425781252
1766001246734420700,3.550420654296875,1.2986748218536377,4.760444641113281,-4.468813896179199,0.32865405273437487
1766001246753201000,3.569200927734375,1.4782267808914185,5.887385368347168,-4.664821624755859,0.3474343261718751
1766001246771981000,3.58798095703125,1.334119200706482,5.092437744140625,-4.711691856384277,0.36621435546875025
1766001246790761200,3.60676123046875,1.1930110454559326,3.045633316040039,-3.1287500858306885,0.38499462890625
1766001246809541600,3.625541748046875,-0.9481765031814576,0.7965002059936523,0.8488755822181702,0.40377514648437485
1766001246828321800,3.64432177734375,-8.983101844787598,1.3408575057983398,5.656270503997803,0.42255517578125
1766001246847102000,3.66310205078125,-5.656328678131104,1.8500938415527344,5.565125942230225,0.44133544921875023
1766001246865882400,3.68188232421875,3.6614794731140137,2.0426416397094727,-0.076359748840332,0.46011572265625
1766001246884662500,3.70066259765625,8.455732345581055,4.823940277099609,-11.535545349121094,0.4788959960937502
1766001246903442700,3.719442626953125,7.849627017974853,5.837132453918457,-17.256505966186523,0.49767602539062494
1766001246922222800,3.738222900390625,4.627184867858887,0.750056266784668,-12.090505599975586,0.5164562988281252
1766001246941003300,3.757003173828125,2.936800479888916,-3.488226890563965,-4.977906227111816,0.5352365722656249
1766001246959783400,3.775783447265625,0.5849027633666992,-4.010214805603027,-1.2589070796966553,0.5540168457031251
1766001246978563600,3.7945634765625,-2.085534811019897,-2.8303098678588867,2.062443733215332,0.5727968749999999
1766001246997343700,3.81334375,-1.2516329288482666,-2.906846046447754,5.416881561279297,0.5915771484375001
1766001247016124200,3.832124267578125,-0.1771842241287231,-3.790725708007813,4.504664421081543,0.6103576660156249
1766001247034904300,3.850904296875,0.3544514179229736,-4.16255521774292,0.4932219982147217,0.6291376953125001
1766001247053684500,3.8696845703125,-1.2576508522033691,-3.717426300048828,-1.7095816135406494,0.6479179687499999
1766001247072464600,3.888464599609375,-0.72881019115448,-3.561368942260742,-2.782637119293213,0.666697998046875
1766001247091245000,3.9072451171875,0.1999818682670593,-3.771207332611084,-3.1212801933288574,0.6854785156249998
1766001247110025200,3.926025146484375,-0.9226312041282654,-2.8548736572265625,-2.5215625762939453,0.704258544921875
1766001247128805400,3.944805419921875,-2.5181679725646973,-0.251164436340332,-1.832463026046753,0.7230388183593752
1766001247147585800,3.963585693359375,-3.986067056655884,2.1331796646118164,1.2116540670394895,0.741819091796875
1766001247166366000,3.982365966796875,-7.211629390716553,4.173763275146484,7.01915168762207,0.7605993652343752
1766001247185146000,4.00114599609375,-9.327908515930176,2.952883720397949,10.750228881835938,0.7793793945312499
1766001247203926300,4.01992626953125,-9.796180725097656,2.263199806213379,11.085991859436035,0.7981596679687497
1766001247222706700,4.038706787109375,7.3131103515625,4.715109825134277,7.148600101470947,0.8169401855468754
1766001247241486800,4.05748681640625,-2.1029162406921387,11.221722602844238,-1.3995349407196045,0.8357202148437501
1766001247260267000,4.07626708984375,5.936514854431152,14.2464017868042,-2.752872943878174,0.8545004882812499
1766001247279047400,4.09504736328125,8.239826202392578,2.9846248626708984,-10.631875991821287,0.8732807617187501
1766001247297827600,4.11382763671875,3.293363571166992,-4.444858551025391,-9.767688751220703,0.8920610351562508
1766001247316607700,4.132607666015625,1.9059139490127563,-5.954277992248535,2.196993350982666,0.9108410644531255
1766001247335388000,4.151387939453125,1.1803003549575806,-6.764348030090332,11.296855926513672,0.9296213378906253
1766001247354168000,4.17016796875,-0.984541654586792,-5.664881229400635,11.308612823486328,0.9484013671875009
1766001247372948500,4.188948486328125,-1.4137178659439087,-6.022955894470215,7.393378257751465,0.9671818847656257
1766001247391728600,4.207728759765625,-1.5512125492095947,-6.402860164642334,4.046833038330078,0.9859621582031255
1766001247410508800,4.2265087890625,-1.147111892700195,-5.8465728759765625,1.8124648332595823,1.0047421875000002
1766001247429289200,4.245289306640625,-0.695941150188446,-4.787153720855713,2.5174059867858887,1.023522705078126
1766001247448069400,4.2640693359375,-0.0220969468355178,-4.070439338684082,3.946064949035645,1.0423027343750007
1766001247466849500,4.282849609375,-0.0055973529815673,-3.1318931579589844,3.4596760272979736,1.0610830078125004
1766001247485629700,4.301629638671875,0.0938972532749176,-1.465357780456543,2.0458192825317383,1.0798630371093751
1766001247504410000,4.32041015625,-0.4225463271141052,1.112558364868164,0.7092852592468262,1.0986435546875009
1766001247523190300,4.339190185546875,-0.8575303554534912,3.5108137130737305,0.2439016103744506,1.1174235839843756
1766001247541970400,4.357970458984375,0.3551922738552093,5.066526412963867,-0.074828028678894,1.1362038574218754
1766001247560750800,4.376750732421875,1.111034870147705,5.341840744018555,-1.543307185173035,1.1549841308593751
1766001247579531000,4.395531005859375,0.0797131657600402,4.225075721740723,-2.939927577972412,1.1737644042968758
1766001247598311200,4.414311279296875,-0.9219061136245728,2.9958066940307617,-2.979654312133789,1.1925446777343756
1766001247617091300,4.43309130859375,-1.7636561393737793,2.300556182861328,-2.3588337898254395,1.2113247070312503
1766001247635871700,4.451871826171875,-2.8070948123931885,2.3035402297973637,-1.7708377838134766,1.230105224609375
1766001247654652000,4.47065185546875,-1.5667505264282229,2.172404289245605,-2.2702183723449707,1.2488852539062507
1766001247673432000,4.48943212890625,0.6077314615249634,1.6020870208740234,-3.361952304840088,1.2676655273437505
1766001247701602600,4.5176025390625,-0.5317788124084473,3.5326051712036133,-3.0793466567993164,1.2958359375000001
1766001247720382700,4.5363828125,-2.279255151748657,4.490158081054688,-2.0081753730773926,1.3146162109375008
1766001247739163000,4.555162841796875,-3.474406719207764,3.805144309997559,-1.0614423751831057,1.3333962402343755
1766001247757943300,4.573943359375,-3.975089550018311,4.221484184265137,0.2650721073150635,1.3521767578125004
1766001247776723500,4.592723388671875,-1.6879591941833496,6.633109092712402,0.8045600652694702,1.370956787109375
1766001247795503600,4.611503662109375,6.138946533203125,5.462481498718262,-1.3318428993225098,1.3897370605468757
1766001247814283800,4.63028369140625,3.6899101734161377,-3.511150360107422,-4.278668403625488,1.4085170898437505
1766001247833064200,4.649064208984375,-13.312952995300291,-2.15645694732666,-1.655515432357788,1.4272976074218753
1766001247861234400,4.677234375,6.139969825744629,-8.261136054992676,-0.5582430362701416,1.4554677734375008
1766001247880014600,4.6960146484375,-1.0224497318267822,-9.64268398284912,-8.503180503845215,1.4742480468750006
1766001247898795000,4.714794921875,-2.777060270309448,-8.975542068481445,-4.9840240478515625,1.4930283203125003
1766001247917575200,4.7335751953125,-3.097623348236084,-9.925565719604492,4.240647792816162,1.51180859375
1766001247936355300,4.752355224609375,-5.100440979003906,-8.285696029663086,8.002822875976562,1.5305886230468757
1766001247955135500,4.771135498046875,-4.031496524810791,-6.116714000701904,6.686161994934082,1.5493688964843755
1766001247973916000,4.789916015625,-0.3041079044342041,-3.7183780670166016,5.006854057312012,1.5681494140625003
1766001247992696000,4.808696044921875,2.3368191719055176,1.3322620391845703,1.9073692560195925,1.586929443359376
1766001248011476200,4.827476318359375,3.044963121414185,4.787773132324219,-1.0114346742630005,1.6057097167968757
1766001248030256600,4.846256591796875,1.5873336791992188,4.126869201660156,-4.775306224822998,1.6244899902343755
1766001248049036800,4.865036865234375,0.2573882937431335,2.6809892654418945,-9.443097114562988,1.6432702636718752
1766001248067817000,4.88381689453125,1.9690828323364256,2.630099296569824,-10.444635391235352,1.6620502929687508
1766001248086597400,4.902597412109375,2.445202589035034,6.1959733963012695,-7.000378131866455,1.6808308105468757
1766001248105377500,4.92137744140625,0.5643892288208008,9.900437355041504,-2.1591477394104004,1.6996108398437504
1766001248124157700,4.94015771484375,1.5288875102996826,9.848533630371094,-0.2031614780426025,1.7183911132812502
1766001248142937900,4.958937744140625,2.3746187686920166,6.775185585021973,-2.832609176635742,1.7371711425781258
1766001248161718300,4.97771826171875,2.32562255859375,5.76790714263916,-3.201787233352661,1.7559516601562506
1766001248180498400,4.99649853515625,3.3316001892089844,5.517012596130371,-2.5314927101135254,1.7747319335937504
1766001248199278600,5.015278564453125,10.496905326843262,1.5164003372192385,-1.6718287467956543,1.793511962890625
1766001248218059000,5.03405908203125,-12.59400463104248,3.346686363220215,0.0790567398071289,1.8122924804687508
1766001248246229200,5.062229248046875,2.2996716499328613,7.39966869354248,5.5248212814331055,1.8404626464843754
1766001248265009400,5.081009521484375,-2.667644500732422,1.5905628204345703,6.83673095703125,1.8592429199218752
1766001248283789800,5.099789794921875,-6.621565818786621,-4.11759614944458,5.877798080444336,1.8780231933593758
1766001248302570000,5.118570068359375,-4.111979961395264,-8.519268035888672,8.183420181274414,1.8968034667968756
1766001248321350100,5.13735009765625,-0.426818311214447,-11.577136993408203,9.03358268737793,1.9155834960937503
1766001248340130300,5.15613037109375,-1.2670493125915527,-11.898279190063477,6.244877815246582,1.93436376953125
1766001248358910700,5.17491064453125,-2.603341579437256,-9.543070793151855,5.784372806549072,1.9531440429687508
1766001248377691000,5.19369091796875,0.5955395698547363,-7.384706497192383,6.729447364807129,1.9719243164062505
1766001248396471000,5.212470947265625,1.652462601661682,-6.548580646514893,4.858926773071289,1.9907043457031253
1766001248415251500,5.23125146484375,2.400831937789917,-6.030070781707764,1.9767745733261108,2.00948486328125
