time,seconds_elapsed,z,y,x,t
1766001256974358300,3.353358154296875,-0.8996511101722717,-0.3698022663593292,-0.7602975964546204,0.9953562011718748
1766001256993138700,3.372138671875,-0.4025598764419555,0.0678823515772819,-0.506483256816864,1.01413671875
1766001257011919000,3.390919189453125,0.0789542719721794,0.1676060259342193,-0.0055741411633789,1.032917236328125
1766001257030699300,3.40969921875,0.5827649831771851,0.0603992566466331,0.5726093649864197,1.051697265625
1766001257049479700,3.428479736328125,1.1369720697402954,0.1109483167529106,1.1222349405288696,1.070477783203125
1766001257068259800,3.447259765625,1.7983858585357666,0.2627482116222381,1.6155083179473877,1.0892578125
1766001257087040300,3.466040283203125,2.3018910884857178,0.3242928385734558,2.049527645111084,1.108038330078125
1766001257105820700,3.484820556640625,2.655123710632324,0.2540434002876282,2.448575019836426,1.1268186035156251
1766001257124600800,3.503600830078125,2.902218580245972,0.1527925580739975,2.792491912841797,1.145598876953125
1766001257143381200,3.52238134765625,3.078758478164673,0.1650098413228988,3.052720308303833,1.1643793945312502
1766001257162161700,3.54116162109375,3.15068793296814,0.2581667304039001,3.159163475036621,1.18315966796875
1766001257180941800,3.55994189453125,3.06547212600708,0.4692205190658569,3.1038804054260254,1.2019399414062502
1766001257199722200,3.57872216796875,2.847698926925659,0.5613083839416504,2.8890085220336914,1.22072021484375
1766001257218502400,3.59750244140625,2.5972442626953125,0.5698604583740234,2.449491500854492,1.2395004882812501
1766001257237282800,3.61628271484375,2.1368050575256348,0.640720784664154,1.732030749320984,1.25828076171875
1766001257256063200,3.635063232421875,1.2982404232025146,0.6124683022499084,1.0402263402938845,1.2770612792968747
1766001257284233700,3.663233642578125,0.0264199022203683,0.2599993348121643,-0.1089630052447319,1.3052316894531248
1766001257303014000,3.682013916015625,-0.7226530313491821,0.414089947938919,-0.812221109867096,1.324011962890625
1766001257321794300,3.700794189453125,-0.6911935210227966,-0.7619774341583252,-0.7344885468482971,1.3427922363281248
1766001257340574500,3.719574462890625,-0.3035998046398163,-0.8053488731384277,-1.3528363704681396,1.361572509765625
1766001257359355000,3.73835498046875,-1.6204715967178345,0.0301614478230476,-1.791131854057312,1.3803530273437499
1766001257378135300,3.75713525390625,-1.957058072090149,0.0129045182839035,-1.9374339580535889,1.39913330078125
1766001257396915500,3.77591552734375,-2.0520474910736084,-0.091400645673275,-1.5776346921920776,1.4179135742187499
1766001257415696000,3.79469580078125,-1.9688172340393064,-0.4330267608165741,-1.5539636611938477,1.43669384765625
1766001257434476300,3.813476318359375,-2.2313363552093506,-0.1969275325536728,-2.211101531982422,1.455474365234375
1766001257453256400,3.83225634765625,-2.702313184738159,0.3890444934368133,-2.5738024711608887,1.47425439453125
1766001257472036900,3.851036865234375,-2.9910993576049805,-1.1851540803909302,-2.368093729019165,1.493034912109375
1766001257490817300,3.8698173828125,-2.5503604412078857,-3.304396629333496,-1.955912709236145,1.5118154296875002
1766001257509597400,3.888597412109375,-1.082452416419983,-3.752618789672852,-1.2257765531539917,1.5305954589843749
1766001257528377900,3.9073779296875,-0.0363464541733264,-3.406105756759644,-0.307646781206131,1.5493759765625001
1766001257547158300,3.926158203125,0.4173733592033386,-2.256305456161499,0.7314342260360718,1.56815625
1766001257565938400,3.9449384765625,0.5276344418525696,-0.9443206191062928,1.3731476068496704,1.5869365234375001
1766001257584718800,3.96371875,0.6415607333183289,0.1402698308229446,1.6000839471817017,1.605716796875
1766001257603499300,3.982499267578125,0.4911352694034576,0.932866871356964,1.6045126914978027,1.6244973144531247
1766001257622279400,4.001279541015625,0.1534797698259353,1.2210423946380615,1.584506869316101,1.6432775878906254
1766001257641059800,4.020059814453125,0.0591011680662632,1.429347276687622,1.474398493766785,1.6620578613281252
1766001257659840000,4.038840087890625,0.2244928032159805,1.805029034614563,1.275562047958374,1.680838134765625
1766001257678620400,4.057620361328125,0.601396381855011,2.1573452949523926,1.2482258081436155,1.6996184082031247
1766001257697400800,4.07640087890625,0.6334667801856995,2.261955976486206,1.566486358642578,1.7183989257812495
1766001257716181000,4.095180908203125,0.2115119248628616,1.6550617218017578,1.611079454421997,1.7371789550781251
1766001257734961400,4.11396142578125,0.6185005903244019,0.8050433993339539,1.209588646888733,1.75595947265625
1766001257753741800,4.132741943359375,1.266017198562622,0.3662897944450378,0.9342412948608398,1.7747399902343748
1766001257772522000,4.15152197265625,1.0551161766052246,0.0408515818417072,0.8517745733261108,1.7935200195312495
1766001257791302400,4.170302490234375,0.5708531141281128,-0.1862373948097229,0.7369319796562195,1.8123005371093752
1766001257810082800,4.189082763671875,0.4555523991584778,-0.2205985486507415,0.5564214587211609,1.831080810546875
1766001257828863000,4.207863037109375,0.6403390169143677,-0.132175862789154,0.3343721032142639,1.8498610839843748
1766001257857033500,4.236033447265625,0.577725350856781,-0.0170278549194335,0.1256090700626373,1.8780314941406253
1766001257875814000,4.25481396484375,0.2791652083396911,-0.1343138962984085,0.1346193253993988,1.8968120117187501
1766001257894594300,4.27359423828125,0.1980729103088379,-0.2372446060180664,0.0785724818706512,1.91559228515625
1766001257922764800,4.301764892578125,0.3205513060092926,-0.1810450553894043,-0.106824979186058,1.9437629394531246
1766001257941545000,4.320544921875,0.0846047699451446,-0.1929569095373153,-0.3969857394695282,1.9625429687500002
1766001257960325400,4.339325439453125,-0.7628173828125,-0.3846157491207123,-1.1275800466537476,1.981323486328125
1766001257979105800,4.358105712890625,-1.9778274297714236,-0.6680569648742676,-1.8824561834335327,2.000103759765625
1766001257997886000,4.376885986328125,-2.957807302474976,-0.5077049732208252,-1.7488294839859009,2.0188840332031246
1766001258016666400,4.395666259765625,-1.652541995048523,-1.6770528554916382,-0.1094211563467979,2.0376643066406253
1766001258035446800,4.41444677734375,-0.4616610705852508,-1.056414246559143,-1.698585867881775,2.05644482421875
1766001258054227000,4.43322705078125,-1.0409135818481443,-3.365635871887207,-1.05091655254364,2.07522509765625
1766001258073007400,4.45200732421875,-0.7406735420227051,-4.4859619140625,-0.4092030525207519,2.0940053710937496
1766001258091787800,4.470787841796875,0.009621120058,-1.8794018030166624,0.3403280377388,2.1127858886718753
1766001258110568000,4.48956787109375,0.6763800382614136,-1.4501166343688965,0.8311578631401062,2.13156591796875
1766001258129348400,4.508348388671875,0.448527455329895,-0.2433532625436782,1.1804198026657104,2.150346435546875
1766001258148128800,4.527128662109375,0.1831067204475402,0.4218784868717193,1.2890009880065918,2.1691267089843747
1766001258166909000,4.545908935546875,0.0439822636544704,0.8432224988937378,1.174921989440918,2.1879069824218753
1766001258185689300,4.564689453125,-0.0812450125813484,0.8815542459487915,1.0128902196884155,2.2066875
1766001258204469800,4.5834697265625,-0.2796233594417572,0.4811323583126068,0.9023236632347108,2.2254677734375
1766001258223250000,4.60225,-0.585972011089325,-0.3565159440040588,0.7025708556175232,2.2442480468749997
1766001258242030300,4.6210302734375,-0.5484038591384888,-1.3514620065689087,0.4154644012451172,2.2630283203125003
1766001258260810800,4.639810791015625,-0.4193586707115173,-2.138103008270264,-0.0952185466885566,2.281808837890625
1766001258279591000,4.6585908203125,-0.6837103962898254,-2.21171236038208,-0.6049851775169373,2.3005888671875
1766001258298371300,4.677371337890625,-1.0053306818008425,-1.933310627937317,-0.7445678114891052,2.3193693847656247
1766001258317151700,4.69615185546875,-1.2925899028778076,-1.7500512599945068,-0.6228529810905457,2.3381499023437495
1766001258335932000,4.714931884765625,-1.5465569496154783,-1.305036187171936,-0.6845503449440002,2.356929931640625
1766001258354712300,4.73371240234375,-1.56350839138031,-0.7137191295623779,-0.7871756553649902,2.37571044921875
1766001258373492700,4.75249267578125,-1.5045599937438965,-0.6798161268234253,-0.8154281377792358,2.3944907226562497
1766001258392273000,4.77127294921875,-1.598480463027954,-0.830547034740448,-0.9447787404060364,2.4132709960937495
1766001258411053300,4.79005322265625,-1.6116139888763428,-1.0938297510147097,-1.131550669670105,2.43205126953125
1766001258429833700,4.808833740234375,-1.4382811784744265,-0.8481093645095825,-0.6596575975418091,2.450831787109375
1766001258448614000,4.82761376953125,-0.7261655330657959,-0.9331722855567932,0.2931387424468994,2.4696118164062497
1766001258467394300,4.846394287109375,0.1149952933192253,0.12713623046875,-0.6880627870559692,2.4883923339843745
1766001258486174700,4.8651748046875,-0.0603228956460952,-0.8620065450668335,-0.2551124095916748,2.5071728515625002
1766001258504955100,4.883955078125,-0.4060723483562469,-1.3406190872192385,0.2957349121570587,2.525953125
1766001258523735300,4.9027353515625,0.2325867712497711,-0.7853430509567261,0.5547415614128113,2.5447333984375
1766001258542515700,4.921515625,1.1792744398117063,-0.6541598439216614,0.8748347163200378,2.5635136718749996
1766001258570686200,4.949686279296875,1.3755147457122805,0.2529743909835815,1.401247501373291,2.591684326171875
1766001258589466600,4.968466552734375,1.360701322555542,0.9108757376670836,1.6046653985977173,2.610464599609375
1766001258608246800,4.987246826171875,1.4262166023254397,1.3010655641555786,1.6098577976226809,2.6292448730468747
1766001258627027200,5.006027099609375,1.5963424444198608,2.029369115829468,1.4802017211914062,2.6480251464843754
1766001258645807600,5.0248076171875,1.6785037517547607,2.793102741241455,1.227914571762085,2.6668056640625
1766001258664588000,5.043588134765625,1.5523601770401,3.1243443489074707,0.7609084248542786,2.685586181640625
1766001258683368200,5.0623681640625,0.8455895781517029,2.8757224082946777,0.1627191007137298,2.7043662109374997
1766001258702148600,5.081148681640625,-0.6067414283752441,1.8296164274215696,-0.6026944518089294,2.7231467285156246
1766001258720928800,5.0999287109375,-1.4240784645080566,-0.2920697331428528,-1.3493239879608154,2.7419267578125
1766001258739709200,5.118709228515625,-1.122769474983215,-1.9293400049209597,-1.860923171043396,2.760707275390625
1766001258758489600,5.137489501953125,-0.9695951342582704,-2.3170864582061768,-2.204839944839477,2.7794875488281248
1766001258777270000,5.15627001953125,-1.1786636114120483,-2.373438835144043,-2.032423496246338,2.7982680664062496
1766001258805440500,5.1844404296875,-0.639270007610321,-1.2612067461013794,0.0184023007750511,2.8264384765625
1766001258824220700,5.203220703125,-0.1368337124586105,0.1103374511003494,-0.9977712631225586,2.84521875
1766001258843001000,5.2220009765625,-0.8075632452964783,-0.5272526741027832,-0.7505237460136414,2.8639990234374997
1766001258861781500,5.240781494140625,-1.0769546031951904,-2.2582907676696777,-0.3119228184223175,2.8827795410156254
1766001258880562000,5.25956201171875,-0.3956876695156097,-1.0515273809432983,-0.011530072428286,2.90156005859375
1766001258899342000,5.278342041015625,0.4410443603992462,-0.967991590499878,0.1779907196760177,2.920340087890625
1766001258918122500,5.29712255859375,0.5577195286750793,-0.5938369035720825,0.5165625214576721,2.9391206054687498
1766001258936903000,5.31590283203125,0.4691441655158996,0.4893790483474731,0.8587995171546936,2.9579008789062495
1766001258955683000,5.33468310546875,0.6273581385612488,1.4246129989624023,1.0464876890182495,2.97668115234375
1766001258974463500,5.35346337890625,0.7739656567573547,1.996077060699463,1.094898700714111,2.99546142578125
1766001258993244000,5.372243896484375,0.833219587802887,2.2546255588531494,1.1045198440551758,3.014241943359375
