time,seconds_elapsed,z,y,x,t
1766001260007382500,6.386382568359375,-1.4963133335113523,-0.9770018458366394,-0.2462548613548278,4.028380615234375
1766001260026163000,6.405162841796875,-0.4738783538341522,0.3027598559856415,-0.7845794558525085,4.047160888671875
1766001260044943400,6.423943359375,-0.6084213256835938,0.7998510599136353,-0.9542471170425416,4.06594140625
1766001260063723500,6.4427236328125,-1.4341577291488647,-1.353600025177002,-0.6115520000457764,4.0847216796875
1766001260082504000,6.46150390625,-1.1458295583724976,-1.4398846626281738,-0.4411207437515259,4.103501953125
1766001260101284400,6.480284423828125,-0.393244206905365,-1.2439497709274292,-0.1723402291536331,4.122282470703125
1766001260120064800,6.499064697265625,0.0711657479405403,-1.8076252937316892,0.1514181047677993,4.141062744140625
1766001260138845000,6.517844970703125,0.6606502532958984,-1.5758020877838137,0.4666243195533752,4.159843017578125
1766001260157625300,6.536625244140625,1.2762492895126345,-0.3252091407775879,0.7389172911643982,4.178623291015625
1766001260176405800,6.55540576171875,1.2681553363800049,0.4672352075576782,0.9991456866264344,4.19740380859375
1766001260195186200,6.574186279296875,0.918893337249756,1.1207077503204346,1.0973422527313232,4.2161843261718746
1766001260223356700,6.602356689453125,0.9815070033073424,2.3212099075317383,0.927521824836731,4.244354736328125
1766001260242137000,6.62113720703125,1.5485422611236572,3.017595767974853,0.6880627870559692,4.26313525390625
1766001260260917500,6.63991748046875,1.8712315559387207,3.1076982021331787,0.2920697331428528,4.28191552734375
1766001260279697700,6.65869775390625,1.1129956245422363,2.234161615371704,-0.1862373948097229,4.30069580078125
1766001260298478000,6.67747802734375,-0.1392771750688552,0.7325032353401184,-0.928438127040863,4.31947607421875
1766001260326648600,6.705648681640625,-1.1268928050994873,-1.1549161672592163,-2.2544727325439453,4.347646728515625
1766001260345429000,6.724428955078125,-1.447291374206543,-2.052887439727783,-2.789743185043335,4.366427001953125
1766001260364209400,6.74320947265625,-1.3345868587493896,-1.6799545288085938,-2.9447500705718994,4.38520751953125
1766001260392380000,6.7713798828125,-0.6826413869857788,-0.3885863721370697,-0.5997928380966187,4.4133779296875
1766001260411160300,6.790160400390625,-0.0972802191972732,-0.0295505840331316,-1.708665132522583,4.432158447265625
1766001260429940500,6.8089404296875,-0.6574432253837585,1.2610539197921753,-1.2221113443374634,4.4509384765624995
1766001260448721000,6.827720947265625,-0.896138608455658,-0.0090866135433316,-0.4458549320697784,4.469718994140625
1766001260467501300,6.846501220703125,-0.6420188546180725,0.617355227470398,0.0691040754318237,4.488499267578125
1766001260495671800,6.874671875,0.3846921026706695,1.7037782669067385,0.6081922650337219,4.516669921875
1766001260514452200,6.8934521484375,0.6556106209754944,1.9514838457107544,1.0316742658615112,4.5354501953125
1766001260533232600,6.912232666015625,0.6776017546653748,2.5566980838775635,1.3986512422561646,4.554230712890625
1766001260552012800,6.9310126953125,0.827874481678009,3.8062222003936768,1.5457170009613037,4.5730107421875
1766001260570793200,6.949793212890625,1.036637544631958,4.979693412780762,1.3890300989151,4.591791259765625
1766001260589573600,6.96857373046875,0.735633909702301,5.80161190032959,1.1440733671188354,4.61057177734375
1766001260608354000,6.98735400390625,0.0077885258942842,5.981969833374023,0.6165916323661804,4.62935205078125
1766001260627134500,7.006134521484375,-0.1394298821687698,5.682034969329834,-0.0442113392055034,4.648132568359375
1766001260645914600,7.02491455078125,0.0419969521462917,4.647840976715088,-0.8096249103546143,4.66691259765625
1766001260664695000,7.043695068359375,-0.9445496797561646,2.86426854133606,-1.7990731000900269,4.685693115234375
1766001260683475500,7.062475341796875,-1.940411925315857,0.0387135557830333,-2.8534257411956787,4.704473388671875
1766001260702255900,7.081255859375,-1.878714680671692,-1.0680207014083862,-3.3424229621887207,4.72325390625
1766001260730426400,7.10942626953125,-2.122144222259521,-1.151098370552063,-3.72314453125,4.75142431640625
1766001260749206800,7.128206787109375,-2.5112650394439697,-0.7102066874504089,-3.6240315437316895,4.770204833984375
1766001260767987000,7.146987060546875,-2.344957113265991,-0.9707404971122742,-3.2804203033447266,4.788985107421875
1766001260786767400,7.165767333984375,-1.8868086338043213,-1.431179761886597,-1.3109921216964722,4.807765380859375
1766001260805547800,7.1845478515625,-0.8188642263412476,0.5057196617126465,-1.154305338859558,4.8265458984375
1766001260824328200,7.203328125,0.0981965139508247,2.4331507682800293,-1.3271801471710205,4.845326171875
1766001260843108600,7.222108642578125,-1.0772600173950195,0.2926805913448334,-0.3765217661857605,4.864106689453125
1766001260861888800,7.240888671875,-1.0499238967895508,1.6080251932144165,0.2154061943292617,4.88288671875
1766001260890059500,7.2690595703125,0.3988946974277496,-0.3077994883060455,0.5773435831069946,4.9110576171875
1766001260908839700,7.287839599609375,0.981354296207428,0.1865428388118744,0.7662535309791565,4.929837646484375
1766001260927620000,7.3066201171875,1.433394193649292,0.6697368621826172,1.0367138385772705,4.9486181640625
1766001260946400500,7.325400390625,1.386357665061951,1.116126298904419,1.2115739583969116,4.9673984375
1766001260965181000,7.344180908203125,0.9474512934684752,1.9039891958236692,1.3105340003967283,4.986178955078125
1766001260983961300,7.36296142578125,0.5458076596260071,2.252792835235596,1.1393392086029053,5.00495947265625
1766001261002741500,7.381741455078125,0.3875937163829803,2.644968032836914,0.8447496294975281,5.023739501953125
1766001261021522000,7.40052197265625,0.0111482823267579,2.9426119327545166,0.9131664633750916,5.04252001953125
1766001261040302300,7.41930224609375,-0.0013744457392022,1.5988621711730957,0.9343940615653992,5.06130029296875
1766001261059082800,7.438082763671875,0.3541488647460937,-0.2454912811517715,0.512133777141571,5.080080810546875
1766001261077863200,7.45686328125,-0.3356702029705047,-0.8224530816078186,-0.0180968698114156,5.098861328125
1766001261096643600,7.4756435546875,-1.543655276298523,-1.4583632946014404,-0.4895317554473877,5.1176416015625
1766001261124814000,7.50381396484375,-2.29288101196289,-2.509967088699341,-1.1124610900878906,5.14581201171875
1766001261143594200,7.52259423828125,-2.914588689804077,-2.566166639328003,-1.748218655586243,5.16459228515625
1766001261162374700,7.541374755859375,-3.753916740417481,-1.9423209428787231,-2.247447967529297,5.183372802734375
1766001261181155000,7.560155029296875,-4.170526504516602,-1.1272746324539185,-2.1487932205200195,5.202153076171875
1766001261199935500,7.578935546875,-3.7178757190704346,-0.3258199989795685,-0.5266417860984802,5.22093359375
1766001261218716000,7.5977158203125,-1.6995785236358645,-0.3610974550247192,-0.8516218662261963,5.2397138671875
1766001261237496300,7.616496337890625,-1.7110322713851929,-2.979569435119629,-1.4995967149734497,5.258494384765625
1766001261256276500,7.6352763671875,-2.609308958053589,-4.287736415863037,-0.5962803959846497,5.2772744140625
1766001261275057000,7.654056884765625,-0.8860593438148499,-2.005239963531494,0.2079230993986129,5.296054931640625
1766001261293837300,7.67283740234375,1.0458004474639893,-2.301356792449951,1.0461822748184204,5.31483544921875
1766001261312617700,7.69161767578125,1.4963133335113523,-0.3478111326694488,1.9049054384231567,5.33361572265625
1766001261331398100,7.710398193359375,1.4891356229782104,1.2176826000213623,2.7584362030029297,5.352396240234375
1766001261350178300,7.72917822265625,1.901774764060974,1.549382209777832,3.2811837196350098,5.37117626953125
1766001261368958700,7.747958740234375,2.441779136657715,1.286710262298584,3.456960201263428,5.389956787109375
1766001261387739100,7.7667392578125,3.031721830368042,0.5154935121536255,3.338146924972534,5.4087373046875
1766001261406519600,7.78551953125,3.633270978927612,0.3204749226570129,3.39175033569336,5.427517578125
1766001261425300000,7.804300048828125,3.886932611465454,-0.2505309283733368,3.408396482467652,5.446298095703125
1766001261444080000,7.823080078125,3.420690059661865,-0.8685733675956726,2.9864416122436523,5.465078125
1766001261462860500,7.841860595703125,2.319606304168701,-0.2471711635589599,2.2653157711029053,5.483858642578125
1766001261481641000,7.860640869140625,1.4772237539291382,0.6961567997932434,1.493793487548828,5.502638916015625
1766001261500421400,7.87942138671875,1.1366666555404663,0.945847749710083,0.8966731429100037,5.52141943359375
1766001261519201800,7.898201904296875,1.045189619064331,0.1860846877098083,0.6492729187011719,5.540199951171875
1766001261537982200,7.916982177734375,1.5071561336517334,-1.6492584943771362,0.7438042163848877,5.558980224609375
1766001261556762400,7.935762451171875,1.882838010787964,-1.5719841718673706,-0.5138136148452759,5.577760498046875
1766001261575542800,7.954542724609375,-0.1530216336250305,-2.946582555770874,-1.1396446228027344,5.596540771484375
1766001261594323200,7.9733232421875,0.480903297662735,-1.6848413944244385,-0.6286562085151672,5.6153212890625
1766001261613103600,7.992103515625,1.3220640420913696,-1.7398192882537842,-0.3780489265918731,5.6341015625
1766001261631884000,8.010884033203125,0.5323686599731445,-1.591379165649414,-0.109115719795227,5.6528820800781245
1766001261650664400,8.02966455078125,0.7205150127410889,-1.2677735090255735,0.0054214247502386,5.67166259765625
1766001261669444900,8.04844482421875,1.0337358713150024,-1.0894010066986084,-0.0231365039944648,5.69044287109375
1766001261688225000,8.06722509765625,0.9033163189888,-1.2723549604415894,-0.090637058019638,5.70922314453125
1766001261707005400,8.08600537109375,0.551152765750885,-0.986928403377533,-0.0425314605236053,5.72800341796875
1766001261725785900,8.104785888671875,0.3605629503726959,-0.6430115103721619,-0.0260381121188402,5.746783935546875
1766001261744566300,8.123566162109375,0.3488037884235382,-0.4438696205615997,-0.0608574040234088,5.765564208984376
1766001261763346700,8.1423466796875,0.3352120518684387,-0.5877282619476318,-0.1023962050676345,5.784344726562502
1766001261782127000,8.161127197265625,0.3207040131092071,-0.733572244644165,-0.1653152853250503,5.803125244140626
1766001261800907500,8.179907470703125,0.3107774555683136,-0.7241038084030151,-0.2213621288537979,5.821905517578125
1766001261819688000,8.19868798828125,0.2533561587333679,-0.5971966981887817,-0.261984646320343,5.840686035156251
1766001261838468000,8.217468017578126,0.2191477417945861,-0.6523272395133972,-0.2164752036333084,5.859466064453127
1766001261857248500,8.23624853515625,0.2057087123394012,-0.8369610905647278,-0.2367864549160003,5.878246582031251
1766001261876029000,8.25502880859375,0.2257145345211029,-1.0038799047470093,-0.2862665057182312,5.89702685546875
1766001261894809300,8.273809326171875,0.1774562150239944,-0.866893470287323,-0.2792415618896484,5.915807373046876
1766001261913589800,8.29258984375,0.1036942973732948,-0.5541307330131531,-0.2503781914710998,5.934587890625
1766001261932370200,8.3113701171875,0.0125227281823754,-0.2016617357730865,-0.1773798614740371,5.953368164062502
1766001261951150600,8.330150634765625,-0.0423023849725723,-0.1677587330341339,-0.1019380614161491,5.9721486816406255
1766001261969930800,8.3489306640625,0.0320704020559787,-0.3215439617633819,-0.0723111182451248,5.990928710937501
1766001261988711200,8.367711181640624,0.1394298821687698,-0.6249909996986389,-0.0872773081064224,6.009709228515625
1766001262007491600,8.38649169921875,0.2218966335058212,-0.8471930623054504,-0.0797942131757736,6.028489746093751
1766001262026272000,8.40527197265625,0.2495382577180862,-0.9266055226325988,-0.0830012485384941,6.0472700195312505
1766001262045052400,8.424052490234375,0.2142608165740966,-0.7668643593788147,-0.0649807378649711,6.066050537109376
