time,seconds_elapsed,z,y,x,t
1766001259012024000,5.391024169921875,0.9250019788742064,2.1898739337921143,1.044960618019104,3.0330222167968746
1766001259030804500,5.409804443359375,1.0830632448196411,2.031201839447021,0.936990201473236,3.051802490234375
1766001259049585000,5.4285849609375,1.2179116010665894,1.8713078498840328,0.8508582711219788,3.0705830078125
1766001259068365300,5.447365234375,1.3196206092834473,1.6150500774383545,0.7412080764770508,3.08936328125
1766001259087145500,5.4661455078125,1.397047758102417,1.2790744304656982,0.589560866355896,3.1081435546874996
1766001259105926000,5.48492578125,1.3300052881240845,1.0122792720794678,0.3817141354084015,3.1269238281250002
1766001259124706300,5.503706298828125,1.074511170387268,0.7864120602607727,0.2285397797822952,3.145704345703125
1766001259143486500,5.522486572265625,0.6933315396308899,0.3322340846061706,0.0067958706058561,3.164484619140625
1766001259162267000,5.541266845703125,0.1872300505638122,-0.335746556520462,-0.3753000497817993,3.1832648925781246
1766001259181047300,5.56004736328125,-0.4642572402954101,-0.7318923473358154,-0.8311578631401062,3.2020454101562503
1766001259199827700,5.57882763671875,-1.0861176252365112,-0.8603267073631287,-1.2830450534820557,3.22082568359375
1766001259218607900,5.59760791015625,-1.5968005657196045,-0.9252310395240784,-1.5976405143737793,3.23960595703125
1766001259237388300,5.61638818359375,-1.9927936792373655,-1.3604722023010254,-1.774791240692139,3.2583862304687496
1766001259256168700,5.635168701171875,-2.1578798294067383,-0.6370556354522705,-1.2984694242477417,3.2771667480468754
1766001259274948900,5.653948974609375,-0.7510582208633423,-1.247767686843872,-0.279394268989563,3.295947021484375
1766001259293729300,5.672729248046875,-0.0551305450499057,0.1393535286188125,-1.5055526494979858,3.314727294921875
1766001259312509700,5.691509765625,-1.4338523149490356,-0.5660426020622253,-0.927521824836731,3.3335078124999997
1766001259331290000,5.7102900390625,-1.426369309425354,-1.9569816589355469,-0.4967094361782074,3.3522880859375004
1766001259350070300,5.7290703125,-0.448527455329895,-1.04786217212677,-0.1494327932596206,3.371068359375
1766001259368850700,5.7478505859375,0.3998109996318817,-1.9397248029708865,0.0846811309456825,3.3898486328125
1766001259387631000,5.766631103515625,0.5780308246612549,-1.447825908660889,0.4876991808414459,3.4086291503906248
1766001259406411500,5.78541162109375,0.64278244972229,-0.4099666178226471,0.8600212335586548,3.4274096679687496
1766001259425191700,5.804191650390625,0.7643445730209351,0.2577085793018341,1.166369915008545,3.446189697265625
1766001259443972000,5.82297216796875,0.8129082918167114,0.7680860757827759,1.4571415185928345,3.46497021484375
1766001259462752500,5.84175244140625,0.9210313558578492,1.1920262575149536,1.6031382083892822,3.48375048828125
1766001259481532700,5.86053271484375,1.0506874322891235,1.263039231300354,1.5263220071792605,3.5025307617187496
1766001259500313000,5.87931298828125,1.0977239608764648,1.2230277061462402,1.3639847040176392,3.52131103515625
1766001259519093500,5.898093505859375,0.952949047088623,1.2847249507904053,1.2877793312072754,3.540091552734375
1766001259537873700,5.916873779296875,0.500298261642456,0.9569960236549376,0.947374939918518,3.558871826171875
1766001259556654000,5.935654052734375,-0.1676823794841766,0.2792415618896484,0.3942368626594543,3.5776520996093746
1766001259575434500,5.9544345703125,-1.0651954412460327,-0.3354411125183105,-0.368580549955368,3.5964326171875003
1766001259594215000,5.97321484375,-1.969733476638794,-0.8296307325363159,-1.0574833154678345,3.615212890625
1766001259612995000,5.9919951171875,-2.012341260910034,-0.8059597015380859,-0.6440805792808533,3.6339931640625
1766001259631775500,6.010775390625,-0.5045742988586426,-2.086332321166992,-0.9765437245368958,3.6527734374999996
1766001259650556000,6.029555908203125,-1.103221774101257,-1.5026509761810305,-1.2321906089782717,3.6715539550781253
1766001259669336300,6.04833642578125,-1.2250893115997314,-3.706345796585083,-0.8711695075035095,3.69033447265625
1766001259688116500,6.067116455078125,-0.2574795186519623,-2.9671993255615234,-0.1928042024374008,3.709114501953125
1766001259706897000,6.08589697265625,0.7556397318840027,-1.655519962310791,0.4047742784023285,3.7278950195312497
1766001259725677300,6.10467724609375,1.2200497388839722,-1.3649009466171265,0.876056432723999,3.7466752929687503
1766001259744457700,6.123457763671875,1.114675521850586,0.2137263119220733,1.2528072595596311,3.765455810546875
1766001259763238000,6.14223779296875,0.9007201194763184,1.4140756130218506,1.3948333263397217,3.78423583984375
1766001259782018300,6.161018310546875,0.7301361560821533,2.0461678504943848,1.4800490140914917,3.8030163574218747
1766001259800798700,6.179798828125,0.7415898442268372,2.3218207359313965,1.5623630285263062,3.8217968749999995
1766001259819579100,6.1985791015625,0.8594867587089539,1.9896628856658936,1.527085542678833,3.8405771484375
1766001259838359300,6.217359375,0.9921970963478088,1.4061343669891355,1.4203369617462158,3.859357421875
1766001259857139700,6.2361396484375,1.142775297164917,0.9472221732139589,1.3229039907455444,3.8781376953124997
1766001259875920100,6.254920166015625,1.1725549697875977,0.3206276595592499,1.0533599853515625,3.8969182128906246
1766001259894700500,6.273700439453125,1.0108284950256348,-0.7471640110015869,0.579787015914917,3.9156984863281252
1766001259913480700,6.292480712890625,0.6415607333183289,-1.5512146949768066,0.418366014957428,3.934478759765625
1766001259932261000,6.31126123046875,0.4822777509689331,-1.5612939596176147,0.3435350656509399,3.95325927734375
1766001259951041500,6.33004150390625,0.2437350451946258,-1.3083959817886353,-0.1062141135334968,3.9720395507812496
1766001259969822000,6.348822021484375,-0.0478001683950424,-1.2705223560333252,-0.6512582302093506,3.9908200683593753
1766001259988602000,6.36760205078125,-1.0622938871383667,-0.8800270557403564,-0.8775836229324341,4.00960009765625
1766001260007382500,6.386382568359375,-1.4963133335113523,-0.9770018458366394,-0.2462548613548278,4.028380615234375
1766001260026163000,6.405162841796875,-0.4738783538341522,0.3027598559856415,-0.7845794558525085,4.047160888671875
1766001260044943400,6.423943359375,-0.6084213256835938,0.7998510599136353,-0.9542471170425416,4.06594140625
1766001260063723500,6.4427236328125,-1.4341577291488647,-1.353600025177002,-0.6115520000457764,4.0847216796875
1766001260082504000,6.46150390625,-1.1458295583724976,-1.4398846626281738,-0.4411207437515259,4.103501953125
1766001260101284400,6.480284423828125,-0.393244206905365,-1.2439497709274292,-0.1723402291536331,4.122282470703125
1766001260120064800,6.499064697265625,0.0711657479405403,-1.8076252937316892,0.1514181047677993,4.141062744140625
1766001260138845000,6.517844970703125,0.6606502532958984,-1.5758020877838137,0.4666243195533752,4.159843017578125
1766001260157625300,6.536625244140625,1.2762492895126345,-0.3252091407775879,0.7389172911643982,4.178623291015625
1766001260176405800,6.55540576171875,1.2681553363800049,0.4672352075576782,0.9991456866264344,4.19740380859375
1766001260195186200,6.574186279296875,0.918893337249756,1.1207077503204346,1.0973422527313232,4.2161843261718746
1766001260223356700,6.602356689453125,0.9815070033073424,2.3212099075317383,0.927521824836731,4.244354736328125
1766001260242137000,6.62113720703125,1.5485422611236572,3.017595767974853,0.6880627870559692,4.26313525390625
1766001260260917500,6.63991748046875,1.8712315559387207,3.1076982021331787,0.2920697331428528,4.28191552734375
1766001260279697700,6.65869775390625,1.1129956245422363,2.234161615371704,-0.1862373948097229,4.30069580078125
1766001260298478000,6.67747802734375,-0.1392771750688552,0.7325032353401184,-0.928438127040863,4.31947607421875
1766001260326648600,6.705648681640625,-1.1268928050994873,-1.1549161672592163,-2.2544727325439453,4.347646728515625
1766001260345429000,6.724428955078125,-1.447291374206543,-2.052887439727783,-2.789743185043335,4.366427001953125
1766001260364209400,6.74320947265625,-1.3345868587493896,-1.6799545288085938,-2.9447500705718994,4.38520751953125
1766001260392380000,6.7713798828125,-0.6826413869857788,-0.3885863721370697,-0.5997928380966187,4.4133779296875
1766001260411160300,6.790160400390625,-0.0972802191972732,-0.0295505840331316,-1.708665132522583,4.432158447265625
1766001260429940500,6.8089404296875,-0.6574432253837585,1.2610539197921753,-1.2221113443374634,4.4509384765624995
1766001260448721000,6.827720947265625,-0.896138608455658,-0.0090866135433316,-0.4458549320697784,4.469718994140625
1766001260467501300,6.846501220703125,-0.6420188546180725,0.617355227470398,0.0691040754318237,4.488499267578125
1766001260495671800,6.874671875,0.3846921026706695,1.7037782669067385,0.6081922650337219,4.516669921875
1766001260514452200,6.8934521484375,0.6556106209754944,1.9514838457107544,1.0316742658615112,4.5354501953125
1766001260533232600,6.912232666015625,0.6776017546653748,2.5566980838775635,1.3986512422561646,4.554230712890625
1766001260552012800,6.9310126953125,0.827874481678009,3.8062222003936768,1.5457170009613037,4.5730107421875
1766001260570793200,6.949793212890625,1.036637544631958,4.979693412780762,1.3890300989151,4.591791259765625
1766001260589573600,6.96857373046875,0.735633909702301,5.80161190032959,1.1440733671188354,4.61057177734375
1766001260608354000,6.98735400390625,0.0077885258942842,5.981969833374023,0.6165916323661804,4.62935205078125
1766001260627134500,7.006134521484375,-0.1394298821687698,5.682034969329834,-0.0442113392055034,4.648132568359375
1766001260645914600,7.02491455078125,0.0419969521462917,4.647840976715088,-0.8096249103546143,4.66691259765625
1766001260664695000,7.043695068359375,-0.9445496797561646,2.86426854133606,-1.7990731000900269,4.685693115234375
1766001260683475500,7.062475341796875,-1.940411925315857,0.0387135557830333,-2.8534257411956787,4.704473388671875
1766001260702255900,7.081255859375,-1.878714680671692,-1.0680207014083862,-3.3424229621887207,4.72325390625
1766001260730426400,7.10942626953125,-2.122144222259521,-1.151098370552063,-3.72314453125,4.75142431640625
1766001260749206800,7.128206787109375,-2.5112650394439697,-0.7102066874504089,-3.6240315437316895,4.770204833984375
1766001260767987000,7.146987060546875,-2.344957113265991,-0.9707404971122742,-3.2804203033447266,4.788985107421875
1766001260786767400,7.165767333984375,-1.8868086338043213,-1.431179761886597,-1.3109921216964722,4.807765380859375
1766001260805547800,7.1845478515625,-0.8188642263412476,0.5057196617126465,-1.154305338859558,4.8265458984375
1766001260824328200,7.203328125,0.0981965139508247,2.4331507682800293,-1.3271801471710205,4.845326171875
1766001260843108600,7.222108642578125,-1.0772600173950195,0.2926805913448334,-0.3765217661857605,4.864106689453125
1766001260861888800,7.240888671875,-1.0499238967895508,1.6080251932144165,0.2154061943292617,4.88288671875
1766001260890059500,7.2690595703125,0.3988946974277496,-0.3077994883060455,0.5773435831069946,4.9110576171875
1766001260908839700,7.287839599609375,0.981354296207428,0.1865428388118744,0.7662535309791565,4.929837646484375
1766001260927620000,7.3066201171875,1.433394193649292,0.6697368621826172,1.0367138385772705,4.9486181640625
1766001260946400500,7.325400390625,1.386357665061951,1.116126298904419,1.2115739583969116,4.9673984375
1766001260965181000,7.344180908203125,0.9474512934684752,1.9039891958236692,1.3105340003967283,4.986178955078125
1766001260983961300,7.36296142578125,0.5458076596260071,2.252792835235596,1.1393392086029053,5.00495947265625
1766001261002741500,7.381741455078125,0.3875937163829803,2.644968032836914,0.8447496294975281,5.023739501953125
1766001261021522000,7.40052197265625,0.0111482823267579,2.9426119327545166,0.9131664633750916,5.04252001953125
1766001261040302300,7.41930224609375,-0.0013744457392022,1.5988621711730957,0.9343940615653992,5.06130029296875
