time,seconds_elapsed,z,y,x,t
1766000659653964000,8.278964111328126,0.4433351159095764,0.0206930451095104,1.005865216255188,6.066218505859376
1766000659682135300,8.30713525390625,0.2722929716110229,-0.1911243200302124,0.9174425601959229,6.0943896484375
1766000659700916200,8.325916259765625,0.148592859506607,-0.2063959389925003,0.7830522656440735,6.113170654296876
1766000659719697200,8.344697265625,0.0464257225394248,-0.1124754771590232,0.6981421113014221,6.13195166015625
1766000659738478000,8.36347802734375,-0.0439822636544704,0.1057559624314308,0.5805506110191345,6.1507324218749995
1766000659757258800,8.3822587890625,-0.098960094153881,0.2300669401884079,0.4458549320697784,6.169513183593751
1766000659776039700,8.401039794921875,-0.1583666950464248,0.1979965418577194,0.297872930765152,6.188294189453125
1766000659794820600,8.419820556640625,-0.3011563420295715,0.1640935540199279,0.1333975940942764,6.207074951171875
1766000659813601500,8.4386015625,-0.4918988645076751,0.1396589577198028,-0.0448222048580646,6.225855957031251
1766000659832382500,8.457382568359375,-0.6559160351753235,0.192193329334259,-0.2386190593242645,6.244636962890625
1766000659851163400,8.476163330078125,-0.7681624889373779,0.3233765363693237,-0.4472293853759765,6.263417724609375
1766000659869944000,8.494944091796874,-0.8471167087554932,0.4589885175228119,-0.6416370868682861,6.282198486328125
1766000659888725000,8.51372509765625,-0.8949168920516968,0.5472584962844849,-0.8368083834648132,6.3009794921875
1766000659907506000,8.532505859375,-0.9468404054641724,0.4760927259922027,-1.0105993747711182,6.31976025390625
1766000659935677200,8.56067724609375,-0.9952514171600342,0.2754236459732055,-1.2554035186767578,6.347931640625
1766000659954458000,8.5794580078125,-1.0257946252822876,0.1260672211647033,-1.4267510175704956,6.36671240234375
1766000659973239000,8.598239013671876,-1.0627520084381104,0.0381026901304721,-1.6181044578552246,6.385493408203126
1766000660001410300,8.626410400390625,-1.0855066776275637,0.0597883909940719,-1.922162413597107,6.413664794921876
1766000660020191200,8.645191162109375,-1.0642791986465454,0.1451567411422729,-2.094426155090332,6.432445556640626
1766000660038972200,8.66397216796875,-0.9929606914520264,0.3446041047573089,-2.279212951660156,6.4512265625
1766000660057753000,8.682753173828125,-0.9676098227500916,0.849483847618103,-2.345186233520508,6.470007568359375
1766000660076534000,8.701533935546875,-1.7511966228485107,1.5638902187347412,-0.011224640533328,6.488788330078125
1766000660095315000,8.72031494140625,0.0667369738221168,2.679023742675781,2.814788579940796,6.507569335937501
1766000660114095600,8.739095703125,1.172096848487854,1.1452951431274414,0.0026725335046648,6.526350097656251
1766000660132876500,8.75787646484375,0.4048506319522857,0.5274053812026978,0.56298828125,6.545130859375001
1766000660161047800,8.7860478515625,0.7079922556877136,-0.4962512850761413,0.4983893036842346,6.573302246093751
1766000660179829000,8.8048291015625,0.627968966960907,-1.7407355308532717,0.5733729600906372,6.592083496093751
1766000660198609700,8.823609619140624,0.4821250140666961,-2.893284559249878,0.6871465444564819,6.610864013671875
1766000660217390600,8.842390625,0.7611374855041504,-3.0424883365631104,0.8587995171546936,6.62964501953125
1766000660245561900,8.870561767578126,1.0879502296447754,-0.4099666178226471,0.7462477087974548,6.657816162109376
1766000660264342800,8.8893427734375,0.7945823669433594,1.137201189994812,0.6330850124359131,6.67659716796875
1766000660283123700,8.908123779296876,0.725860059261322,1.496695041656494,0.7030289769172668,6.695378173828126
1766000660301904600,8.926904541015626,0.8049670457839966,0.4354702234268188,0.783815860748291,6.714158935546876
1766000660320685600,8.945685546875,0.8040507435798645,-0.7016545534133911,1.0162498950958252,6.73293994140625
1766000660339466500,8.964466552734375,0.7666352987289429,-1.023885726928711,1.181488871574402,6.751720947265626
1766000660358247400,8.983247314453125,0.8271108865737915,-0.7271581888198853,1.2092832326889038,6.7705017089843755
1766000660377028000,9.002028076171875,0.8239038586616516,-0.0545960403978824,1.12360942363739,6.789282470703125
1766000660395809000,9.02080908203125,0.7619010806083679,0.4351648092269897,1.0041853189468384,6.808063476562499
1766000660414590000,9.03958984375,0.7151699662208557,0.591088056564331,0.8893427848815918,6.826844238281251
1766000660433371000,9.058370849609377,0.6175842881202698,0.4088976085186004,0.7748056054115295,6.845625244140627
1766000660452151800,9.07715185546875,0.4815141558647156,0.0335212051868438,0.6986002326011658,6.864406250000001
1766000660470932700,9.0959326171875,0.3497200906276703,-0.168675035238266,0.6197986602783203,6.883187011718751
1766000660489713400,9.11471337890625,0.2356410920619964,-0.2465602904558181,0.50144362449646,6.901967773437501
1766000660508494300,9.133494384765624,0.1328630894422531,-0.2751182317733764,0.3847684562206268,6.920748779296875
1766000660527275300,9.152275146484374,0.0421496704220771,-0.2221257090568542,0.2381609082221985,6.939529541015625
1766000660546056200,9.17105615234375,-0.0603228956460952,-0.0755181610584259,0.054443322122097,6.958310546875
1766000660574227500,9.1992275390625,-0.2756527364253998,0.1246927753090858,-0.1978438347578048,6.98648193359375
1766000660593008400,9.21800830078125,-0.4060723483562469,0.1879172772169113,-0.3690386712551117,7.0052626953125
1766000660611789300,9.236789306640626,-0.4995346665382385,0.1799760311841964,-0.5411498546600342,7.024043701171876
1766000660630570200,9.2555703125,-0.5943714380264282,0.1410334110260009,-0.7121919989585876,7.04282470703125
1766000660649351200,9.27435107421875,-0.6659952998161316,0.1234710440039634,-0.8743765950202942,7.06160546875
1766000660668132000,9.293132080078124,-0.718224287033081,0.0904843434691429,-1.0136537551879885,7.080386474609374
1766000660686912800,9.311912841796875,-0.7780889868736267,0.0463493652641773,-1.1807252168655396,7.0991672363281255
1766000660705693700,9.330693603515623,-0.8297070860862732,-0.040698867291212,-1.3083959817886353,7.117947998046874
1766000660724474600,9.349474609375,-0.8567378520965576,-0.0692567974328994,-1.384906768798828,7.136729003906249
1766000660743255600,9.368255615234377,-0.8724676370620728,0.0283288545906543,-1.5483131408691406,7.155510009765627
1766000660762036500,9.387036376953125,-0.8743002414703369,0.1052978187799453,-1.7634903192520142,7.174290771484375
1766000660780817400,9.4058173828125,-0.8912517428398132,0.0723111182451248,-1.9705734252929688,7.193071777343751
1766000660808988700,9.43398876953125,-0.8640682101249695,0.1081994250416755,-2.1185553073883057,7.221243164062501
1766000660827769600,9.45276953125,-0.8617774844169617,0.8762091398239136,-3.131216526031494,7.240023925781251
1766000660846550500,9.471550537109374,-1.2179116010665894,-2.719035387039185,-0.6191878318786621,7.258804931640625
1766000660865331500,9.49033154296875,-0.3675878942012787,-1.5431207418441772,2.344422578811645,7.2775859375000005
1766000660884112100,9.509112060546874,1.5916081666946411,0.040698867291212,-0.3494910001754761,7.296366455078124
1766000660902893000,9.52789306640625,0.5633700489997864,-0.132175862789154,1.1046725511550903,7.3151474609375
1766000660921674000,9.546674072265626,0.7092140316963196,0.385532021522522,0.6938660144805908,7.333928466796876
1766000660940455000,9.565454833984376,0.9616538882255554,1.0732131004333496,0.5390118360519409,7.352709228515626
1766000660968626200,9.593626220703126,0.8132137656211853,-0.3736201822757721,0.6115520000457764,7.380880615234376
1766000660987407000,9.612406982421875,0.8839213252067566,-1.25311279296875,0.5695550441741943,7.399661376953126
1766000661006188000,9.63118798828125,0.9355394244194032,-1.71431565284729,0.4534907341003418,7.4184423828125
1766000661024969000,9.649968994140623,0.9885319471359252,-1.300302028656006,0.2728274762630462,7.437223388671874
1766000661043750000,9.66875,0.9984585046768188,-0.7106648087501526,0.0190131664276123,7.4560043945312495
1766000661062530800,9.68753076171875,0.9688315391540528,-0.5524508357048035,-0.2598465979099273,7.474785156249999
1766000661081311700,9.706311767578123,0.9502001404762268,-0.825507402420044,-0.2013563066720962,7.493566162109373
1766000661100092400,9.725092529296877,0.826958179473877,-0.6847030520439148,-0.0564286336302757,7.512346923828127
1766000661118873300,9.743873291015625,0.7480039000511169,-0.2723693251609802,-0.2007454335689544,7.531127685546875
1766000661137654300,9.762654296875,0.6698132157325745,0.0333684869110584,-0.4967094361782074,7.549908691406251
1766000661156435200,9.781435302734376,0.5577195286750793,0.0498618371784687,-0.7276163101196289,7.568689697265627
1766000661175216000,9.800216064453124,0.4575377106666565,-0.2071595191955566,-0.9026290774345398,7.587470458984375
1766000661193997000,9.8189970703125,0.3840812444686889,-0.4762454628944397,-1.0678679943084717,7.6062514648437505
1766000661212778000,9.837778076171874,0.3254382014274597,-0.5588648915290833,-1.2859467267990112,7.6250324707031245
1766000661231559000,9.856558837890624,0.2264781147241592,-0.4789943397045135,-1.5122721195220947,7.643813232421874
1766000661250339800,9.87533984375,0.0878118127584457,-0.3688859641551971,-1.7505093812942505,7.66259423828125
1766000661269120500,9.89412060546875,-0.0323758348822593,-0.4191296100616455,-1.9540801048278809,7.681375
1766000661287901700,9.912901611328126,-0.1320995092391967,-0.6060542464256287,-2.0896921157836914,7.700156005859376
1766000661306682400,9.931682373046876,-0.1977674663066864,-0.7952696084976196,-2.1956770420074463,7.718936767578126
1766000661325463300,9.95046337890625,-0.2684750556945801,-0.9024763703346252,-2.2575271129608154,7.7377177734375
1766000661344244200,9.969244140625,-0.3561341762542724,-0.9073632955551147,-2.30670166015625,7.75649853515625
1766000661363025200,9.988025146484375,-0.4659371078014374,-0.9105703234672546,-2.312657594680786,7.7752795410156255
1766000661381806000,10.00680615234375,-0.5737547278404236,-0.909195840358734,-2.2546255588531494,7.7940605468749995
1766000661400587000,10.0255869140625,-0.6444623470306396,-0.8594104051589966,-2.1486403942108154,7.812841308593749
1766000661428758300,10.05375830078125,-0.6522508859634399,-1.141324520111084,-1.7889938354492188,7.841012695312501
1766000661447539200,10.072539306640625,-0.3532325625419616,-1.3041199445724487,-1.197218656539917,7.859793701171875
1766000661466320100,10.091320068359376,0.1615737378597259,-1.01304292678833,-0.345062255859375,7.878574462890627
1766000661485101000,10.11010107421875,-0.1678351014852523,0.3554469347000122,-0.5416079759597778,7.897355468750001
1766000661503882000,10.128882080078125,-0.351705402135849,0.5132027864456177,-0.8439860343933105,7.916136474609375
1766000661522663000,10.147662841796874,-0.0684168562293052,-0.4434114694595337,-0.7157044410705566,7.934917236328125
1766000661541443800,10.16644384765625,0.0975856482982635,-0.2696204483509063,-0.4762454628944397,7.9536982421875
1766000661560224800,10.185224853515624,0.0601701810956001,-0.1986074149608612,-0.4172970056533813,7.9724792480468745
1766000661579005700,10.204005615234376,0.1702785640954971,-0.5264890789985657,-0.3476584255695343,7.991260009765626
1766000661597786600,10.22278662109375,0.1684459596872329,-0.2713003158569336,-0.3140608668327331,8.010041015625
1766000661616567600,10.241567626953126,0.1409570425748825,0.0322994738817215,-0.2780198454856872,8.028822021484377
1766000661635348500,10.260348388671876,0.1650862097740173,0.0237473677843809,-0.2370918989181518,8.047602783203125
1766000661654129400,10.27912939453125,0.1719584316015243,-0.0295505840331316,-0.2250273078680038,8.066383789062499
1766000661672910300,10.297910400390624,0.1582139730453491,-0.1097265854477882,-0.2297615110874176,8.085164794921873
1766000661691691300,10.316691162109375,0.1331685185432434,-0.0355065166950225,-0.2354120165109634,8.103945556640625
1766000661710472200,10.33547216796875,0.1143844276666641,0.1608865112066269,-0.2442695498466491,8.122726562499999
