time,seconds_elapsed,z,y,x,t
1766000657642062300,6.267062255859375,0.5651769638061523,0.5176076889038086,-1.065941333770752,4.084835449218749
1766000657660843300,6.28584326171875,0.1155614852905273,0.1889448165893554,-0.645088791847229,4.103616455078124
1766000657679624200,6.304624267578125,-0.3869104385375976,0.0138883590698242,-0.1262418925762176,4.1223974609375
1766000657698405000,6.323405029296875,-1.139328956604004,-0.3047695159912109,0.7494139075279236,4.14117822265625
1766000657726576400,6.351576416015625,-0.0284991264343261,-0.5688791275024414,2.4766488075256348,4.169349609375
1766000657754747600,6.37974755859375,-0.0284991264343261,-3.720444679260254,2.9877554178237915,4.197520751953125
1766000657773528600,6.398528564453125,-0.0284991264343261,5.983819961547852,3.498862028121948,4.2163017578124995
1766000657792309500,6.4173095703125,0.8830761909484863,-6.932056427001953,9.058664321899414,4.235082763671874
1766000657811090200,6.436090087890625,-0.6206631660461426,-6.097844123840332,0.4576433897018432,4.253863281249999
1766000657829871000,6.45487109375,-0.5991196632385254,-3.4982686042785645,-0.6887610554695129,4.272644287109374
1766000657848652000,6.473652099609375,-0.5330262184143066,-1.3435306549072266,0.901332139968872,4.29142529296875
1766000657867433000,6.492432861328125,-0.4519286155700683,-1.6889009475708008,1.1460398435592651,4.3102060546875
1766000657886214000,6.5112138671875,-0.2700934410095215,-2.439955711364746,1.382280349731445,4.328987060546875
1766000657904994600,6.52999462890625,-1.123917579650879,-1.6429839134216309,1.8503551483154297,4.347767822265625
1766000657923775500,6.548775390625,-1.2594733238220217,-1.2039289474487305,1.3958088159561155,4.3665485839843745
1766000657942556400,6.567556396484375,-1.2459478378295898,-1.0830864906311035,-0.2175388932228088,4.385329589843749
1766000657961337300,6.58633740234375,-1.0717153549194336,-0.6373176574707031,-1.0225821733474731,4.404110595703124
1766000657980118000,6.605117919921875,-0.8005609512329102,0.0682687759399414,-0.4705269932746887,4.422891113281249
1766000658008289500,6.63328955078125,-0.3376111984252929,0.7391395568847656,0.4510895013809204,4.451062744140625
1766000658027070200,6.6520703125,-0.2034673690795898,1.108555793762207,0.1767725646495819,4.469843505859375
1766000658045851100,6.67085107421875,-0.2323341369628906,1.1319360733032229,-0.1812178790569305,4.488624267578125
1766000658064632000,6.689632080078125,-0.1516623497009277,0.9463286399841307,-0.6127502918243408,4.5074052734375
1766000658083413000,6.7084130859375,0.4868083000183105,1.3785381317138672,-0.6772392988204956,4.526186279296875
1766000658102194000,6.72719384765625,1.114859104156494,1.899503231048584,-0.3410239815711975,4.544967041015624
1766000658120974800,6.745974853515625,1.372838020324707,2.2832822799682617,0.0994555354118347,4.563748046874999
1766000658139755500,6.764755615234375,1.8014016151428225,2.554160118103028,0.1890619397163391,4.582528808593749
1766000658158536400,6.783536376953125,2.173464775085449,2.378584861755371,-0.545454204082489,4.6013095703125
1766000658177317400,6.8023173828125,2.5564074516296387,2.318353176116944,-0.9721503257751464,4.620090576171875
1766000658196098300,6.821098388671875,2.547689437866211,2.687314987182617,-0.9015543460845948,4.63887158203125
1766000658214879200,6.839879150390625,2.6469926834106445,2.900421619415283,-0.678313672542572,4.65765234375
1766000658233660000,6.858659912109375,2.805239200592041,2.7913708686828613,-0.9030221700668336,4.67643310546875
1766000658252440800,6.87744091796875,2.768712043762207,2.7440977096557617,-1.1790170669555664,4.6952141113281245
1766000658271221800,6.8962216796875,2.7622694969177246,2.715416431427002,-1.387161135673523,4.713994873046874
1766000658290002700,6.915002685546875,2.9706501960754395,2.6492562294006348,-1.5628530979156494,4.732775878906249
1766000658308783600,6.93378369140625,2.846312522888184,2.6914353370666504,-1.2987796068191528,4.751556884765624
1766000658327564300,6.952564208984375,2.4690213203430176,2.7494893074035645,-0.8692455291748047,4.77033740234375
1766000658346345200,6.97134521484375,2.092892646789551,2.0226168632507324,-1.0902066230773926,4.789118408203125
1766000658365126100,6.990126220703125,2.014300346374512,1.6273956298828125,-1.409093141555786,4.8078994140625
1766000658383907000,7.008906982421875,1.8461599349975584,1.4176368713378906,-1.5448079109191897,4.82668017578125
1766000658402688000,7.02768798828125,1.575808048248291,1.3526949882507324,-1.065483331680298,4.845461181640625
1766000658421468700,7.04646875,1.2375574111938477,1.2872428894042969,-0.4689537584781647,4.864241943359374
1766000658440249600,7.06524951171875,0.8153009414672852,1.1310539245605469,-0.3989542424678802,4.883022705078124
1766000658459030500,7.084030517578125,0.5407919883728027,0.8283777236938477,-0.6948328018188477,4.901803710937499
1766000658477811500,7.1028115234375,0.1107745170593261,0.4442057609558105,-0.6831219792366028,4.920584716796875
1766000658496592100,7.121592041015625,-0.3597922325134277,0.5809078216552734,-0.0608603954315185,4.939365234375
1766000658515373000,7.140373046875,-1.0145883560180664,0.3477296829223633,0.9121387004852296,4.958146240234375
1766000658534154000,7.159154052734375,0.7070982456207275,0.0663099288940429,2.9746549129486084,4.97692724609375
1766000658552935000,7.177934814453125,-10.298897743225098,-6.08186149597168,6.598006725311279,4.9957080078125
1766000658571715800,7.1967158203125,-11.271506309509276,-1.3527860641479492,5.657539367675781,5.0144890136718745
1766000658590496500,7.21549658203125,-6.115457534790039,1.062760353088379,5.247539043426514,5.033269775390624
1766000658609277400,7.23427734375,-0.946946620941162,-5.599762439727783,4.362401962280273,5.052050537109374
1766000658628058400,7.253058349609375,-1.9320173263549805,-6.707789897918701,0.278676688671112,5.070831542968749
1766000658646839300,7.27183935546875,-0.7750043869018555,-5.064260005950928,-0.983594536781311,5.089612548828125
1766000658665620200,7.2906201171875,-0.8609976768493652,-2.25787353515625,-0.0074028074741363,5.108393310546875
1766000658684401000,7.30940087890625,-0.8272452354431152,-0.9171695709228516,-0.2619439363479614,5.127174072265625
1766000658703181800,7.328181884765625,-1.8804216384887693,-1.297807216644287,2.218649387359619,5.145955078125
1766000658721962800,7.346962646484375,-1.314688205718994,-0.2409090995788574,4.255588531494141,5.1647358398437495
1766000658740743700,7.36574365234375,-0.6411290168762207,0.3563156127929687,2.334763526916504,5.183516845703124
1766000658759524600,7.384524658203125,0.0259160995483398,-0.0046472549438476,-1.0452346801757812,5.202297851562499
1766000658778305300,7.40330517578125,-0.4551897048950195,-0.5504274368286133,-1.5679787397384644,5.221078369140624
1766000658797086200,7.422086181640625,-1.027387619018555,-0.4521565437316894,-0.3818001449108124,5.239859375
1766000658815867100,7.4408671875,-1.1434698104858398,-0.1955299377441406,0.2797073721885681,5.258640380859375
1766000658834648000,7.45964794921875,-0.6522388458251953,0.484135627746582,0.2368654906749725,5.277421142578125
1766000658853429000,7.478428955078125,0.7721834182739258,0.5582122802734375,0.218752384185791,5.2962021484375
1766000658872210000,7.4972099609375,1.678353786468506,0.6589722633361816,-0.3043287396430969,5.314983154296875
1766000658890990600,7.515990478515625,1.9103131294250488,0.9777164459228516,-0.6372262239456177,5.3337636718749994
1766000658909771500,7.534771484375,1.8598341941833496,1.3341350555419922,-0.9057289958000184,5.352544677734374
1766000658928552400,7.553552490234375,1.7215161323547363,1.7046723365783691,-1.330547571182251,5.371325683593749
1766000658956723700,7.5817236328125,1.5291972160339355,2.5949668884277344,-1.623574137687683,5.399496826171875
1766000658975504600,7.600504638671875,2.003350257873535,3.314544677734375,-1.301633358001709,5.41827783203125
1766000658994285600,7.61928564453125,2.435921669006348,3.56710147857666,-1.3186427354812622,5.437058837890625
1766000659013066200,7.638066162109375,2.688856601715088,3.745778560638428,-1.3030948638916016,5.45583935546875
1766000659031847200,7.65684716796875,2.569887638092041,3.66874885559082,-1.3145668506622314,5.474620361328125
1766000659050628000,7.675628173828125,2.3342528343200684,3.595536231994629,-1.3297580480575562,5.4934013671874995
1766000659069409000,7.694408935546875,2.2001829147338867,3.62042236328125,-1.5023794174194336,5.512182128906249
1766000659088190000,7.71318994140625,2.1890697479248047,3.44932222366333,-1.70044207572937,5.530963134765624
1766000659106971000,7.731970947265625,2.2103419303894043,2.9197564125061035,-1.8120622634887693,5.549744140624999
1766000659125751600,7.75075146484375,2.2856216430664062,2.5307130813598637,-1.9879122972488403,5.568524658203125
1766000659144532500,7.769532470703125,2.025277137756348,2.604557991027832,-2.017970323562622,5.5873056640625
1766000659163313400,7.7883134765625,1.496220588684082,2.2621726989746094,-1.918053388595581,5.606086669921875
1766000659182094300,7.80709423828125,1.1555571556091309,1.546764850616455,-1.7215166091918943,5.624867431640625
1766000659200875300,7.825875244140625,0.8216452598571777,1.1131010055541992,-1.393344521522522,5.6436484375
1766000659219656000,7.844656005859375,0.5443115234375,0.5842189788818359,-0.8020607233047485,5.662429199218749
1766000659238436900,7.863436767578125,0.2182812690734863,0.0441598892211914,-0.2861568331718445,5.681209960937499
1766000659257217800,7.8822177734375,-0.0922904014587402,-0.0693616867065429,0.2841657996177673,5.699990966796874
1766000659285389000,7.91038916015625,-0.7407550811767578,-0.5697498321533203,1.6351045370101929,5.728162353515625
1766000659304170000,7.929169921875,-0.0922904014587402,-7.621759414672852,4.383484303951263,5.746943115234375
1766000659322951000,7.947950927734375,-0.7407550811767578,-2.18078088760376,7.131864070892334,5.76572412109375
1766000659351122200,7.9761220703125,11.921892166137695,-4.374231815338135,9.2142972946167,5.793895263671875
1766000659369903000,7.994903076171875,-0.9425830841064452,-8.310091972351074,2.969731092453003,5.8126762695312495
1766000659388684000,8.01368408203125,-0.5812759399414062,-6.429047584533691,-0.9368954300880432,5.831457275390625
1766000659407465000,8.03246484375,0.131566047668457,-3.772301197052002,-0.952633798122406,5.850238037109375
1766000659426246000,8.051245849609375,-1.0614352226257324,-1.7224149703979492,-0.3856875896453857,5.869019042968749
1766000659445026600,8.070026611328124,-0.8172998428344727,-2.272027015686035,-0.081627145409584,5.887799804687499
1766000659463807500,8.088807373046874,-2.295538902282715,-2.885994434356689,1.9060672521591189,5.906580566406249
1766000659482588400,8.10758837890625,-2.034602642059326,-0.6161594390869141,4.441750526428223,5.925361572265626
1766000659510759700,8.135759765625,-0.5421972274780273,1.5647058486938477,0.6010526418685913,5.9535329589843755
1766000659529540600,8.15454052734375,-0.4518618583679199,-0.3632969856262207,-3.983286142349243,5.972313720703125
1766000659548321500,8.173321533203126,-0.7401270866394043,0.0456180572509765,-3.950355052947998,5.991094726562501
1766000659567102500,8.1921025390625,-0.7542448043823242,1.2251806259155271,-1.248100519180298,6.009875732421875
1766000659595273700,8.220273681640625,-0.4683609008789062,1.698519229888916,0.9059692025184632,6.038046875000001
1766000659614054700,8.2390546875,0.1274886131286621,2.2260327339172363,0.5297545790672302,6.056827880859375
1766000659632835600,8.257835693359375,0.7362585067749023,1.961169719696045,-0.8439838886260986,6.075608886718751
1766000659651616500,8.276616455078125,1.283735275268555,2.105428695678711,-1.6977167129516602,6.094389648437501
1766000659670397200,8.295397216796875,1.844135284423828,2.442206859588623,-2.1142914295196533,6.1131704101562505
1766000659689178000,8.31417822265625,2.055966377258301,2.7105259895324707,-1.927056074142456,6.131951416015626
