time,seconds_elapsed,z,y,x,t
1765999719349435000,11.579434814453125,0.0112556219100952,1.236130714416504,0.0414794087409973,6.131177001953125
1765999719368213200,11.598213134765626,0.0784564018249511,0.0001020431518554,0.8784067034721375,6.149955322265626
1765999719386991900,11.616991943359375,0.4369999170303345,-0.6108484268188477,0.9442580938339232,6.1687341308593755
1765999719405770500,11.6357705078125,0.6683981418609619,-0.0409460067749023,0.8324295878410339,6.187512695312501
1765999719424548900,11.654548828125,0.5864739418029785,0.4008550643920898,0.9786620736122132,6.206291015625
1765999719443327500,11.673327392578123,0.6141107082366943,0.0674028396606445,0.9068729281425476,6.225069580078124
1765999719462105900,11.69210595703125,0.4646637439727783,-0.2920103073120117,0.5629177689552307,6.243848144531251
1765999719480884500,11.710884521484376,0.1631060242652893,-0.2156591415405273,0.0766321048140525,6.262626708984376
1765999719499663000,11.7296630859375,0.022340178489685,-0.1270732879638672,-0.4635158181190491,6.2814052734375
1765999719518441500,11.74844140625,0.340387761592865,0.0802068710327148,-0.5193790793418884,6.300183593750001
1765999719537220000,11.76722021484375,1.1368544101715088,-0.0432024002075195,-0.4076437950134277,6.31896240234375
1765999719555998500,11.78599853515625,2.075128555297852,-0.5060644149780273,0.2086330652236938,6.33774072265625
1765999719574777000,11.804777099609376,2.1038949489593506,-0.6882009506225586,0.862503707408905,6.356519287109377
1765999719593555700,11.8235556640625,1.7159086465835571,-0.3383646011352539,0.139104351401329,6.3752978515625
1765999719612334000,11.842333984375,1.3681485652923584,0.034311294555664,-0.6410772204399109,6.394076171875
1765999719631112700,11.86111279296875,1.6873431205749512,0.5083713531494141,-1.2412941455841064,6.412854980468751
1765999719649891000,11.87989111328125,2.24209213256836,0.3790807723999023,-1.2251707315444946,6.43163330078125
1765999719668669700,11.898669677734375,2.466050863265991,-0.7239618301391602,-0.1918379366397857,6.450411865234376
1765999719687448000,11.917447998046876,2.171908378601074,-0.7604007720947266,0.0243606120347976,6.469190185546877
1765999719706226700,11.936226806640626,1.6064889430999756,-0.0935163497924804,-0.4994707107543945,6.487968994140626
1765999719725005000,11.955005126953123,1.6712968349456787,0.1665019989013672,-0.6606301665306091,6.506747314453124
1765999719743783700,11.97378369140625,1.140190601348877,0.0770015716552734,-0.0018481910228729,6.525525878906251
1765999719762562300,11.992562255859376,0.4467127323150635,-0.3008184432983398,1.0138864517211914,6.544304443359376
1765999719790730000,12.02072998046875,-0.6464554071426392,-0.3764019012451172,1.7783498764038086,6.572472167968751
1765999719809508600,12.039508544921874,-1.300200343132019,-0.2518815994262695,1.483717679977417,6.591250732421875
1765999719837676300,12.06767626953125,-1.8218168020248413,-0.0671548843383789,2.3085720539093018,6.61941845703125
1765999719856455000,12.086454833984376,-2.268740653991699,0.0263538360595703,3.0341272354125977,6.638197021484377
1765999719884622600,12.11462255859375,-3.034658908843994,0.1287679672241211,3.037615776062012,6.66636474609375
1765999719903401200,12.133401123046877,-3.422945022583008,0.1421747207641601,2.2814292907714844,6.685143310546877
1765999719922179600,12.1521796875,-2.787781238555908,0.5916204452514648,1.0714609622955322,6.703921875000001
1765999719940958200,12.170958251953126,-1.753750562667847,0.8649787902832031,0.8340610861778259,6.722700439453126
1765999719959736600,12.189736572265623,-1.6519136428833008,0.5663843154907227,1.2756454944610596,6.741478759765624
1765999719978515200,12.20851513671875,-2.709150791168213,1.828463554382324,2.0272796154022217,6.760257324218751
1765999719997293800,12.2272939453125,-3.0373754501342773,3.004772186279297,2.442148447036743,6.7790361328125
1765999720016072200,12.246072265625,-0.7207955121994019,0.8550739288330078,0.8330031633377075,6.7978144531249995
1765999720034850800,12.264850830078124,1.2770196199417114,0.6761550903320312,-2.3869822025299072,6.816593017578125
1765999720053629400,12.28362939453125,4.354308605194092,1.3004283905029297,-4.227912425994873,6.83537158203125
1765999720072407800,12.30240771484375,4.919680595397949,0.3050050735473633,-4.073987007141113,6.8541499023437495
1765999720091186400,12.3211865234375,1.307547092437744,-3.146501064300537,-0.5262597799301147,6.872928710937501
1765999720109964800,12.33996484375,-1.3324856758117676,-4.367746353149414,1.1120439767837524,6.89170703125
1765999720128743400,12.358743408203123,-2.203613519668579,-3.610187530517578,2.319873809814453,6.910485595703124
1765999720147522000,12.37752197265625,-1.37740159034729,-2.0702133178710938,2.759045124053955,6.929264160156251
1765999720166300400,12.396300537109376,0.6797029972076416,-0.9875788688659668,2.1266074180603027,6.948042724609376
1765999720185079000,12.4150791015625,2.820952653884888,-0.2205419540405273,1.3349652290344238,6.9668212890625
1765999720203857400,12.433857421875,3.5531907081604004,1.607402801513672,0.739363431930542,6.985599609375001
1765999720222636000,12.452635986328126,4.164683818817139,4.404348373413086,-0.9678679704666138,7.004378173828126
1765999720241414700,12.47141455078125,7.133767127990723,6.133923530578613,-1.784985065460205,7.02315673828125
1765999720260193000,12.490193115234376,6.592554092407227,5.26913595199585,-2.0834555625915527,7.041935302734377
1765999720278971600,12.5089716796875,5.091011047363281,6.133923530578613,-3.866320133209229,7.0607138671875
1765999720297750300,12.527750244140623,4.867003440856934,-0.08033561706542966,-4.588052272796631,7.079492431640624
1765999720316528600,12.546528564453125,2.155872106552124,0.5762033462524414,-4.273763179779053,7.098270751953125
1765999720335307300,12.565307373046876,-1.413987159729004,-2.9831225872039795,-2.269662618637085,7.117049560546876
1765999720354085600,12.584085693359375,-5.504968643188477,0.5762033462524414,0.2157420516014099,7.135827880859376
1765999720372864300,12.6028642578125,-1.8850998878479004,-6.5424485206604,-5.180774211883545,7.154606445312501
1765999720391643000,12.621642822265626,-0.5212681293487549,6.806621551513672,-0.7609564661979675,7.173385009765626
1765999720410421200,12.640421142578123,-1.5046969652175903,-1.9408507347106931,3.002955913543701,7.192163330078124
1765999720429200000,12.659199951171876,-1.839887261390686,-5.856263160705566,-4.227272033691406,7.210942138671877
1765999720447978200,12.677978271484376,-1.4303619861602783,-4.147899627685547,-5.196192741394043,7.229720458984376
1765999720466756900,12.6967568359375,-3.2426745891571045,-4.326920509338379,-0.2291533946990966,7.2484990234375
1765999720485535500,12.715535400390625,-3.3998634815216064,-4.773791313171387,2.077389478683472,7.267277587890625
1765999720504313900,12.73431396484375,-3.419278860092163,-3.824938297271729,-1.019660234451294,7.28605615234375
1765999720523092500,12.753092529296875,-3.221158266067505,-2.985316276550293,-3.607407808303833,7.304834716796876
1765999720541870800,12.771870849609376,-3.0515241622924805,-3.688723564147949,-4.052827835083008,7.323613037109377
1765999720560649500,12.7906494140625,-3.2665302753448486,-4.314491271972656,-2.91774320602417,7.3423916015625
1765999720579428000,12.809427978515624,-3.640068531036377,-3.687567710876465,-1.215100646018982,7.361170166015624
1765999720598206500,12.82820654296875,-4.175551414489746,-2.520970344543457,-0.4929862022399902,7.379948730468751
1765999720616985000,12.846985107421874,-4.050275802612305,-1.537435531616211,-0.3314855098724365,7.3987272949218745
1765999720635763700,12.865763671875,-3.6737661361694336,-1.1462011337280271,-0.5441685914993286,7.417505859375
1765999720654542000,12.8845419921875,-3.0579981803894043,-1.185588836669922,-1.0114641189575195,7.436284179687501
1765999720673320700,12.90332080078125,-2.6687211990356445,-0.7456808090209961,-2.105172634124756,7.4550629882812505
1765999720692099000,12.92209912109375,-2.260271549224853,-0.0542573928833007,-2.881425142288208,7.47384130859375
1765999720710877700,12.940877685546877,-1.8453505039215088,0.2944898605346679,-2.618816375732422,7.492619873046877
1765999720729656300,12.95965625,-1.2172977924346924,-0.0217676162719726,-1.4565134048461914,7.5113984375000005
1765999720748434700,12.9784345703125,-1.2459962368011477,-0.2939624786376953,-0.0305215418338775,7.5301767578125
1765999720767213300,12.99721337890625,-1.5544867515563965,-0.2972288131713867,0.8019426465034485,7.548955566406251
1765999720785991700,13.01599169921875,-1.4848079681396484,-0.2682523727416992,1.4261338710784912,7.5677338867187505
1765999720804770300,13.034770263671875,-1.510988712310791,-0.1392536163330078,2.232060194015503,7.586512451171876
1765999720823549000,13.053548828125,-2.1925594806671143,0.2332496643066406,1.9892412424087524,7.605291015625001
1765999720842327300,13.072327392578124,-1.7771403789520264,0.4316139221191406,1.251726508140564,7.624069580078125
1765999720861106000,13.09110595703125,-1.9519753456115725,0.3936853408813476,1.2504507303237915,7.64284814453125
1765999720879884500,13.109884521484377,-1.4209787845611572,1.6138019561767578,0.320059061050415,7.661626708984377
1765999720898663000,13.128662841796874,2.358102560043335,3.8278207778930655,-1.2429561614990234,7.680405029296875
1765999720917441500,13.147441650390626,5.378764629364014,4.343878746032715,-2.934040307998657,7.699183837890626
1765999720936220200,13.16622021484375,4.779279708862305,4.744782447814941,-4.856960773468018,7.717962402343751
1765999720954998500,13.18499853515625,1.216289758682251,6.037811279296875,-7.10713529586792,7.736740722656251
1765999720973777200,13.203777099609376,0.9840227961540222,3.3879289627075195,-3.71837854385376,7.755519287109376
1765999720992555500,13.222555419921877,1.3081207275390625,-1.033036231994629,-0.9687916040420532,7.774297607421877
1765999721011334100,13.241334228515624,1.5744562149047852,-2.6190218925476074,-0.0527818202972412,7.793076416015625
1765999721030112800,13.26011279296875,1.174882173538208,-2.0440731048583984,0.9773882627487184,7.81185498046875
1765999721048891100,13.27889111328125,1.6352165937423706,-0.4506721496582031,1.2402907609939575,7.830633300781251
1765999721067669800,13.297669677734374,2.5122227668762207,1.2255191802978516,0.8733255863189697,7.849411865234375
1765999721086448400,13.316448486328126,2.855715274810791,0.8755807876586914,0.2916665077209472,7.868190673828126
1765999721105226800,13.335226806640623,2.633293867111206,-0.4256906509399414,0.3935733139514923,7.886968994140624
1765999721124005400,13.35400537109375,1.9754304885864256,-0.5573797225952148,0.6324589848518372,7.905747558593751
1765999721142784000,13.372783935546876,1.5125263929367063,-0.01861572265625,0.8434506058692932,7.924526123046876
1765999721161562400,13.391562255859377,1.2767939567565918,0.1160011291503906,1.406856894493103,7.943304443359377
1765999721180341000,13.410341064453124,0.3029693365097046,0.0717992782592773,1.8526533842086792,7.962083251953125
1765999721199119400,13.429119384765626,-0.3798420429229736,-0.1295967102050781,1.1583997011184692,7.980861572265626
1765999721217898000,13.44789794921875,-0.1442536115646362,-0.3444061279296875,0.2491024434566497,7.9996401367187495
1765999721236676600,13.466676513671874,0.4832377433776855,-0.1374073028564453,-0.2036053240299224,8.018418701171875
1765999721255455000,13.485455078125,0.7063335180282593,0.1905632019042968,-0.2435207664966583,8.037197265625
1765999721274233600,13.504233642578123,1.2750864028930664,0.1116285324096679,-0.2147402465343475,8.055975830078124
1765999721293012200,13.52301220703125,1.807420372962952,0.0155601501464843,0.0557483732700347,8.07475439453125
1765999721311790600,13.54179052734375,1.731364130973816,0.0196313858032226,0.2493862807750702,8.09353271484375
1765999721330569200,13.5605693359375,1.0406230688095093,-0.1960325241088867,0.495779812335968,8.1123115234375
1765999721349347800,13.579347900390625,0.5554214715957642,-0.3571443557739258,1.0111236572265625,8.131090087890625
1765999721368126200,13.598126220703126,0.1925421953201294,-0.2712936401367187,1.6456153392791748,8.149868408203126
