time,seconds_elapsed,z,y,x,t
1765999724471280600,16.70128076171875,-0.3940077722072601,-0.5808560252189636,-0.3178787529468536,11.229549804687501
1765999724490059300,16.720059326171874,-0.6385064125061035,-0.7004328370094299,-0.2192240953445434,11.248328369140626
1765999724508838000,16.738837890625,-0.6325504779815674,-0.7990874648094177,-0.0854447111487388,11.267106933593752
1765999724527616300,16.7576162109375,-0.4732674956321716,-0.8094722032546997,0.104076087474823,11.285885253906251
1765999724546395000,16.776394775390624,-0.1560759544372558,-0.7386118769645691,0.3475056886672973,11.304663818359376
1765999724565173500,16.795173583984376,0.3769035637378692,-0.780303418636322,0.6500364542007446,11.323442626953128
1765999724583952100,16.8139521484375,1.0610721111297607,-1.2902227640151978,0.7569378018379211,11.342221191406253
1765999724602730800,16.832730712890626,2.3185372352600098,-2.5090506076812744,0.6599630117416382,11.360999755859378
1765999724621509000,16.851509033203126,3.5715737342834477,-4.2135162353515625,0.2225838601589203,11.379778076171878
1765999724640287700,16.870287841796873,4.027278900146484,-5.223275661468506,-0.5710822343826294,11.398556884765625
1765999724659066400,16.88906640625,3.9723010063171382,-5.4544878005981445,-1.540066480636597,11.41733544921875
1765999724677844700,16.9078447265625,3.7154324054718018,-5.126453399658203,-2.359541654586792,11.436113769531254
1765999724696623400,16.926623291015623,3.503156900405884,-4.821631908416748,-2.8916049003601074,11.454892333984375
1765999724715402000,16.945402099609375,3.426035165786743,-5.006266117095947,-3.166646718978882,11.473671142578127
1765999724743570000,16.97356982421875,1.808923363685608,-4.295677661895752,-1.219667911529541,11.501838867187502
1765999724762348300,16.992348388671875,1.0390809774398804,-0.6747764945030212,-1.4325542449951172,11.520617431640627
1765999724781127000,17.011126953125,1.8382447957992556,-1.341230034828186,-1.6390265226364136,11.539395996093752
1765999724799905500,17.029905517578126,1.6574288606643677,-0.104076087474823,-1.2491421699523926,11.558174560546878
1765999724818684000,17.048683837890625,0.7643445730209351,1.0486257076263428,-0.8119156360626221,11.576952880859377
1765999724837462500,17.067462646484376,0.2861901521682739,0.7830522656440735,-0.5561160445213318,11.595731689453128
1765999724856241200,17.0862412109375,-0.0106901340186595,1.122998595237732,-0.1772271394729614,11.614510253906253
1765999724875019800,17.105019775390623,-0.3181078433990478,1.50738525390625,0.307494044303894,11.633288818359375
1765999724893798400,17.12379833984375,-0.5549706816673279,1.8083888292312624,0.7883973717689514,11.6520673828125
1765999724912576800,17.14257666015625,-0.7461713552474976,2.016082763671875,1.1138355731964111,11.670845703125003
1765999724931355400,17.16135546875,-0.8979712128639221,2.144211769104004,1.3740639686584473,11.689624511718751
1765999724950134000,17.180134033203124,-1.0001384019851685,2.145891666412353,1.6484949588775637,11.708403076171876
1765999724968912600,17.19891259765625,-1.0184643268585205,2.0098214149475098,1.8920773267745967,11.727181640625002
1765999724987691000,17.21769091796875,-1.063210129737854,1.8983386754989624,2.094578981399536,11.745959960937501
1765999725006469600,17.2364697265625,-1.1287254095077517,1.887190341949463,2.2275948524475098,11.764738769531252
1765999725025248300,17.255248291015626,-1.1895064115524292,1.9065853357315063,2.303647518157959,11.783517333984378
1765999725044026600,17.274026611328125,-1.242040753364563,1.8618395328521729,2.32090425491333,11.802295654296877
1765999725062805200,17.29280517578125,-1.2793035507202148,1.7611994743347168,2.2827253341674805,11.821074218750002
1765999725081583900,17.311583984375,-1.2973240613937378,1.5951969623565674,2.215682983398437,11.839853027343754
1765999725100362500,17.330362548828123,-1.390328288078308,1.3436734676361084,2.097327947616577,11.858631591796875
1765999725119140900,17.349140869140626,-1.5250239372253418,1.1155154705047607,1.926896572113037,11.877409912109378
1765999725137919500,17.36791943359375,-1.6473495960235596,0.8862884640693665,1.7109558582305908,11.896188476562504
1765999725156698000,17.386697998046873,-1.6934698820114136,0.7323505282402039,1.4568361043930054,11.914967041015625
1765999725175476700,17.405476806640625,-1.6485713720321655,0.664391815662384,1.1683552265167236,11.933745849609377
1765999725194255000,17.424255126953124,-1.5835142135620115,0.6243801712989807,0.8642973303794861,11.952524169921876
1765999725213033700,17.44303369140625,-1.5274673700332642,0.6856193542480469,0.5370265245437622,11.971302734375001
1765999725231812400,17.461812255859375,-1.4888302087783811,0.8080977201461792,0.1833357959985733,11.990081298828127
1765999725250591000,17.480591064453126,-1.5204424858093262,0.923703908920288,-0.1581376194953918,12.008860107421878
1765999725269369300,17.499369384765625,-1.5767947435379028,0.9580650329589844,-0.4970148503780365,12.027638427734377
1765999725297537300,17.527537353515626,-1.4782928228378296,1.046334981918335,-0.7969494462013245,12.055806396484378
1765999725316316000,17.54631591796875,-0.8391754627227783,1.802127480506897,-0.8238275051116943,12.074584960937504
1765999725335094500,17.565094482421873,0.0293215103447437,1.88337242603302,-1.1784344911575315,12.093363525390625
1765999725353873000,17.583872802734376,-0.0276416316628456,0.9759328365325928,-1.6819398403167725,12.112141845703128
1765999725372651500,17.602651611328124,-0.2342666387557983,0.0087811816483736,-1.6924772262573242,12.130920654296876
1765999725391430100,17.62143017578125,-0.0126754445955157,-0.6161335110664368,-1.1459059715270996,12.149699218750001
1765999725410208800,17.640208740234375,0.1456912457942962,-0.8387936949729919,-0.7262418866157532,12.168477783203127
1765999725428987100,17.658987060546874,0.3877464234828949,-0.6761509776115417,-0.5897135734558105,12.187256103515626
1765999725447765800,17.677765869140625,0.4969384968280792,-0.885830283164978,-0.4316523373126983,12.206034912109377
1765999725466544400,17.69654443359375,0.3973675370216369,-1.3870447874069214,-0.3194059133529663,12.224813476562503
1765999725485323000,17.715322998046876,0.3527744114398956,-1.3991093635559082,-0.3149771392345428,12.243592041015628
1765999725504101400,17.734101318359375,0.2519817352294922,-0.9256892204284668,-0.3377318680286407,12.262370361328127
1765999725532269300,17.762269287109376,0.0051923505961894,0.1410334110260009,-0.418824166059494,12.290538330078128
1765999725551048000,17.7810478515625,-0.0618500597774982,0.8736129999160767,-0.4076758921146393,12.309316894531253
1765999725569826300,17.799826416015627,-0.0983492285013198,1.2357031106948853,-0.3774380683898926,12.328095458984379
1765999725588605000,17.81860498046875,-0.1505781710147857,1.1883610486984253,-0.3157407343387604,12.3468740234375
1765999725607383600,17.837383544921874,-0.1773035079240799,0.8894954919815063,-0.2514472007751465,12.365652587890626
1765999725626162200,17.856162109375,-0.1690568327903747,0.5826886296272278,-0.2002872824668884,12.384431152343751
1765999725644940800,17.87494091796875,-0.1414151936769485,0.3763690590858459,-0.1822667717933654,12.403209960937502
1765999725663719200,17.89371923828125,-0.134695678949356,0.4356229603290558,-0.1364519149065017,12.421988281250002
1765999725682497800,17.912497802734375,-0.1517999023199081,0.5551997423171997,-0.1126281917095184,12.440766845703127
1765999725701276400,17.9312763671875,-0.173485592007637,0.4956403970718384,-0.0791833475232124,12.459545410156252
1765999725720055000,17.950054931640626,-0.1664606481790542,0.4079813063144684,-0.0151952616870403,12.478323974609378
1765999725738833400,17.96883349609375,-0.132404938340187,0.2667188346385956,0.0859028622508049,12.497102539062503
1765999725757612000,17.987612060546876,-0.0878118127584457,0.1187368407845497,0.2332739830017089,12.515881103515628
1765999725776390700,18.006390625,-0.064598947763443,0.0432950407266616,0.3925569653511047,12.534659667968754
1765999725795169300,18.025169189453123,-0.0135917412117123,-0.0720056891441345,0.5403862595558167,12.553438232421875
1765999725813948000,18.043947998046875,-0.0079412423074245,-0.147905632853508,0.6208676695823669,12.572217041015627
1765999725832726300,18.06272631835937,-0.0285579282790422,-0.2448804229497909,0.6251437664031982,12.590995361328122
1765999725851505000,18.0815048828125,-0.0940731763839721,-0.2369391769170761,0.58039790391922,12.609773925781251
1765999725870283500,18.100283447265625,-0.2238819450139999,-0.1689804643392563,0.4799106419086456,12.628552490234377
1765999725889062100,18.119062255859376,-0.3685041666030884,-0.1436295807361602,0.3511708974838257,12.647331298828128
1765999725907840500,18.137840576171875,-0.5204567909240723,-0.0781143307685852,0.2302196621894836,12.666109619140627
1765999725936008400,18.16600854492188,-0.7831286191940308,0.0486401095986366,0.0901789143681526,12.694277587890632
1765999725954787000,18.184787109375,-0.8442151546478271,0.0124463699758052,0.033673919737339,12.713056152343754
1765999725973565700,18.203565673828123,-0.7993165850639343,-0.1715766489505767,0.025427246466279,12.731834716796875
1765999725992344000,18.222343994140623,-0.9424116611480712,-0.53931725025177,0.004810560029,12.750613037109375
1765999726011122700,18.24112280273437,-1.0445787906646729,-0.6943241953849792,-0.0956766977906227,12.769391845703122
1765999726029901300,18.2599013671875,-0.8260418772697449,-0.6931024789810181,-0.0687986463308334,12.788170410156251
1765999726048680000,18.278679931640625,-0.2693913578987121,-0.8902590870857239,0.1770744323730468,12.806948974609377
1765999726067458300,18.297458251953124,0.5329795479774475,-1.6804126501083374,0.4278344213962555,12.825727294921876
1765999726086237000,18.31623681640625,1.796553373336792,-3.12296986579895,1.142698884010315,12.844505859375001
1765999726105015600,18.335015625,3.014923095703125,-3.869904756546021,2.088012218475342,12.863284667968752
1765999726123794200,18.35379418945313,3.663356065750122,-3.2271223068237305,2.7210206985473637,12.882063232421881
1765999726142572800,18.37257275390625,3.955044031143189,-1.844429850578308,2.6874232292175293,12.900841796875003
1765999726170740500,18.400740478515623,4.161821842193604,0.1870009750127792,1.1029927730560305,12.929009521484375
1765999726189519000,18.41951904296875,4.1923651695251465,0.8271872401237488,-0.4689150750637054,12.947788085937503
1765999726208297700,18.43829760742188,3.659996271133423,-0.0237473677843809,-2.1118359565734863,12.966566650390632
1765999726227076000,18.457076171875,3.011410713195801,-2.294331789016724,-3.457876443862915,12.98534521484375
1765999726245854700,18.475854736328124,2.948949813842773,-4.806207656860352,-4.166632175445557,13.004123779296876
1765999726264633300,18.49463330078125,2.968344688415528,-6.29427433013916,-4.201451778411865,13.022902343750001
1765999726283412000,18.51341186523437,3.1780240535736084,-6.495096206665039,-4.027507781982422,13.041680908203123
1765999726302190600,18.53219067382813,3.045466423034668,-6.511589527130127,-3.0936484336853027,13.060459716796881
1765999726320969000,18.550968994140625,1.3706278800964355,-3.1820709705352783,-0.5330559015274048,13.079238037109377
1765999726339747600,18.56974755859375,0.9430224895477296,0.4815905094146728,-1.3589450120925903,13.098016601562502
1765999726358526200,18.58852612304688,1.416900873184204,0.3438405096530914,-1.1591923236846924,13.116795166015631
1765999726377304800,18.607304931640623,0.7840449213981628,1.4823397397994995,-0.5332086086273193,13.135573974609375
1765999726396083500,18.62608349609375,-0.3327685892581939,1.8995603322982788,0.095982126891613,13.1543525390625
1765999726414861800,18.64486181640625,-0.5882627964019775,1.4521019458770752,0.2030361741781234,13.173130859375004
1765999726433640400,18.663640380859373,-0.8410080671310425,1.1901936531066897,0.5217548608779907,13.191909423828125
1765999726452419000,18.682419189453125,-1.1252129077911377,1.504178166389465,0.8908699154853821,13.210688232421877
1765999726471197700,18.70119775390625,-1.3752093315124512,1.873751401901245,1.1379647254943848,13.229466796875002
1765999726489976000,18.71997607421875,-1.5401427745819092,2.14711332321167,1.2828923463821411,13.248245117187501
1765999726508754700,18.738754638671875,-1.640019178390503,2.3719115257263184,1.4006365537643433,13.267023681640627
