time,seconds_elapsed,z,y,x,t
1765999734644582400,26.87458251953125,-0.1123902797698974,0.0343914031982421,0.1258156895637512,21.42632470703125
1765999734663361000,26.893361083984374,-0.0290312767028808,-0.1134166717529296,-0.1130738258361816,21.44510327148437
1765999734682139600,26.9121396484375,0.0551602840423584,-0.05523681640625,-0.2557646632194519,21.4638818359375
1765999734700918300,26.930918212890624,0.0274581909179687,0.0242128372192382,-0.2236449718475341,21.48266040039062
1765999734719697000,26.94969677734375,-0.0524852275848388,-0.0764627456665039,-0.1126158833503723,21.50143896484375
1765999734738475500,26.9684755859375,-0.1560606956481933,-0.1976070404052734,0.1388706564903259,21.5202177734375
1765999734757254100,26.987254150390623,-0.3031923770904541,-0.2999858856201172,0.4210926294326782,21.538996337890623
1765999734776032800,27.00603271484375,-0.3889799118041992,-0.2038173675537109,0.4979362487792969,21.557774902343752
1765999734794811400,27.024811279296877,-0.4119782447814941,-0.1084661483764648,0.3487024307250976,21.576553466796874
1765999734813590000,27.043590087890625,-0.233030080795288,-0.12811279296875,0.0129960775375366,21.595332275390625
1765999734832368600,27.06236865234375,0.0271899700164794,-0.1093969345092773,-0.4181392192840576,21.614110839843747
1765999734851147300,27.081147216796875,0.2340362071990966,-0.0554628372192382,-0.8720945119857788,21.632889404296876
1765999734869926000,27.09992578125,0.4529714584350586,0.1117420196533203,-1.3183342218399048,21.651667968749997
1765999734888704500,27.11870458984375,0.5005030632019043,0.154789924621582,-1.3778233528137207,21.67044677734375
1765999734907483100,27.137483154296877,0.4903764724731445,-0.0133256912231445,-1.0687458515167236,21.689225341796877
1765999734926261800,27.15626171875,0.3702433109283447,-0.2479057312011718,-0.6032603979110718,21.70800390625
1765999734945040400,27.175040283203124,0.2099761962890625,-0.216897964477539,-0.3333767652511596,21.72678247070312
1765999734963819000,27.193819091796875,0.0457291603088378,-0.1049385070800781,-0.1979579925537109,21.745561279296872
1765999734982597600,27.21259765625,0.1191413402557373,-0.0754280090332031,-0.0831117630004882,21.76433984375
1765999735001376300,27.23137622070313,0.1360063552856445,-0.1238660812377929,-0.0708032846450805,21.78311840820313
1765999735020155000,27.25015478515625,0.2335851192474365,-0.1974439620971679,-0.2094862461090088,21.80189697265625
1765999735038933500,27.26893359375,0.2641527652740478,-0.1398830413818359,-0.2368080615997314,21.820675781249996
1765999735057712000,27.287712158203124,0.1313591003417968,-0.0116748809814453,-0.0428040027618408,21.839454345703125
1765999735076490800,27.30649072265625,-0.1772985458374023,-0.0236082077026367,0.1870942115783691,21.858232910156246
1765999735095269400,27.32526928710937,-0.2412126064300537,-0.1006450653076171,0.1711868047714233,21.87701147460937
1765999735123437300,27.353437255859376,-0.1060049533843994,-0.132913589477539,-0.1194835901260376,21.905179443359373
1765999735142216000,27.3722158203125,-0.0586671829223632,-0.0260591506958007,-0.1859644651412964,21.9239580078125
1765999735160994600,27.39099462890625,-0.0272877216339111,0.0180463790893554,-0.1000411510467529,21.942736816406246
1765999735179773200,27.40977319335937,0.0026123523712158,0.0006170272827148,0.1775755882263183,21.961515380859367
1765999735198551800,27.4285517578125,0.1084158420562744,0.0205583572387695,0.3453384637832641,21.980293945312496
1765999735217330400,27.447330322265625,0.0396499633789062,0.1162405014038086,0.409479022026062,21.999072509765625
1765999735236109000,27.466109130859376,-0.1536073684692382,0.0235023498535156,0.4462478160858154,22.017851318359376
1765999735254887700,27.4848876953125,-0.4428691864013672,-0.2859277725219726,0.92007178068161,22.0366298828125
1765999735273666300,27.503666259765627,-1.1260714530944824,-0.4953832626342773,1.025089979171753,22.055408447265627
1765999735292445000,27.52244482421875,-1.6301519870758057,-0.5352191925048828,0.3394832611083984,22.07418701171875
1765999735311223600,27.5412236328125,-1.6298401355743408,-0.3080425262451172,-0.2992064952850342,22.0929658203125
1765999735330002200,27.560002197265625,-0.4797887802124023,0.3611602783203125,-0.205742597579956,22.111744384765622
1765999735348780800,27.57878076171875,0.5529546737670898,0.9676504135131836,0.3374388217926025,22.13052294921875
1765999735367559400,27.59755932617188,1.1804909706115725,0.960862159729004,0.2066500186920166,22.14930151367188
1765999735386338000,27.616338134765623,1.452979564666748,0.6223382949829102,-0.2440073490142822,22.168080322265624
1765999735405116700,27.63511669921875,1.4970749616622925,0.4577474594116211,-0.4624490737915039,22.186858886718746
1765999735423895300,27.653895263671878,1.4642045497894287,0.3231306076049804,-0.7137048244476318,22.205637451171874
1765999735442674000,27.672673828125,1.3790621757507324,0.6514434814453125,-0.9532067775726318,22.224416015624996
1765999735461452800,27.691452880859377,1.2153873443603516,0.8803863525390625,-1.872297763824463,22.243195068359377
1765999735480231400,27.7102314453125,0.9808642864227296,0.6705236434936523,-2.7902817726135254,22.2619736328125
1765999735499009800,27.729009765625,1.1155076026916504,0.5697698593139648,-3.630807876586914,22.280751953124998
1765999735517788700,27.74778857421875,0.6405128240585327,0.4397907257080078,-4.312347412109375,22.29953076171875
1765999735536567300,27.7665673828125,-0.0853035449981689,-0.2027931213378906,-5.025604248046875,22.3183095703125
1765999735555346000,27.785345947265625,-0.3240425586700439,-1.0560522079467771,-5.183444023132324,22.337088134765622
1765999735574124500,27.80412451171875,-0.1121397018432617,-1.818532943725586,-5.1611504554748535,22.35586669921875
1765999735592903200,27.82290307617188,1.1801605224609375,-2.3123912811279297,-3.339608669281006,22.37464526367188
1765999735611681800,27.841681884765624,0.8443533182144165,-2.0531396865844727,-1.896864414215088,22.393424072265624
1765999735630460400,27.86046044921875,0.3471567630767822,-1.427586555480957,0.0667778253555297,22.412202636718746
1765999735649239000,27.879239013671874,-0.1091179847717285,-1.5905418395996094,3.1610751152038574,22.430981201171875
1765999735668017700,27.898017578125,0.3270823955535888,-0.3201875686645508,5.54017972946167,22.449759765624997
1765999735686796300,27.91679638671875,3.5910089015960693,2.2402448654174805,8.007665634155273,22.468538574218748
1765999735705575000,27.93557495117188,7.2804436683654785,4.566591262817383,8.642396926879883,22.487317138671877
1765999735724353500,27.954353515625,6.984307289123535,3.4034180641174316,3.542365312576294,22.506095703125
1765999735743132200,27.973132080078123,1.3238797187805176,4.540014743804932,-0.4337222576141357,22.52487426757812
1765999735761910800,27.991910888671875,1.9159302711486816,2.1785826683044434,-2.342202425003052,22.54365307617187
1765999735780689400,28.010689453125,2.2930188179016118,4.5134382247924805,-0.0468277931213378,22.562431640625
1765999735799468000,28.029468017578125,2.1044745445251465,-0.1562728881835937,2.802863836288452,22.581210205078122
1765999735818246700,28.04824658203125,-0.9367982745170592,3.1515846252441406,-2.0384087562561035,22.59998876953125
1765999735846414600,28.07641455078125,3.119590759277344,3.400357246398926,0.7207794189453125,22.62815673828125
1765999735865193500,28.095193359375,0.4716291427612304,-0.3751029968261719,-2.0384087562561035,22.646935546875
1765999735883972000,28.11397216796875,-6.7848052978515625,0.12347412109375,0.7207794189453125,22.66571435546875
1765999735902750700,28.13275073242188,-4.370373368263245,-0.7054338455200195,-5.993168354034424,22.68449291992188
1765999735921529300,28.151529296875,-8.101122856140137,-3.2127833366394043,-3.5071499347686768,22.703271484375
1765999735940308000,28.170307861328126,-1.9559414386749268,-3.2127833366394043,-5.649669647216797,22.722050048828123
1765999735959086600,28.189086669921878,-3.1275382041931152,-4.323450565338135,-1.3646302223205566,22.740828857421874
1765999735977865200,28.207865234375,-5.562860012054443,-5.141073226928711,-1.4860177040100098,22.759607421874996
1765999735996643800,28.226643798828125,-5.081501007080078,-4.323450565338135,-1.058193922042847,22.778385986328125
1765999736015422500,28.24542236328125,-5.079826831817627,-3.983652114868164,-0.0161666870117187,22.797164550781247
1765999736034201000,28.264201171875,-4.838149547576904,-3.4237184524536133,0.897383451461792,22.815943359374998
1765999736052979700,28.282979736328127,-4.309381008148193,-2.673853874206543,1.2467920780181885,22.834721923828127
1765999736071758300,28.30175830078125,-3.761472225189209,-2.14493465423584,1.1004929542541504,22.85350048828125
1765999736090537000,28.320536865234374,-3.207611083984375,-1.84858512878418,0.4617438316345215,22.87227905273437
1765999736109315600,28.339315673828125,-2.920543670654297,-1.7302889823913574,-0.4010868072509765,22.89105786132812
1765999736128094200,28.35809423828125,-1.9512877464294436,-1.4086251258850098,-0.3098266124725342,22.90983642578125
1765999736146872800,28.376872802734376,-1.4389166831970217,-0.5420951843261719,0.2666466236114502,22.928614990234372
1765999736165651500,28.3956513671875,-0.8748087882995605,0.69580078125,0.2483061552047729,22.9473935546875
1765999736184430000,28.41443017578125,-0.3704714775085449,1.63861083984375,-0.369739294052124,22.966172363281245
1765999736212598000,28.442597900390624,1.1901568174362185,2.008890151977539,-1.2462639808654783,22.99434008789062
1765999736231376600,28.46137670898437,2.048762321472168,1.780303955078125,-1.4065556526184082,23.01311889648437
1765999736250155300,28.4801552734375,2.7624850273132324,1.334024429321289,-1.3016170263290403,23.0318974609375
1765999736268934100,28.49893408203125,2.6476733684539795,1.140707015991211,-0.9975541830062866,23.05067626953125
1765999736287712800,28.517712646484377,2.559460401535034,1.285994529724121,-0.5473933219909668,23.069454833984373
1765999736306491400,28.536491455078124,3.091829776763916,1.596639633178711,-0.3192092180252075,23.088233642578125
1765999736325270000,28.55527001953125,8.276324272155762,3.134307861328125,-0.8644347190856934,23.107012207031246
1765999736344048600,28.57404858398437,7.713744640350342,2.8375349044799805,-2.4895825386047363,23.12579077148437
1765999736362827300,28.5928271484375,3.6124889850616455,1.655623435974121,-2.291619300842285,23.144569335937497
1765999736381606000,28.61160595703125,-2.4128034114837646,3.017958641052246,0.4514467716217041,23.16334814453125
1765999736400384500,28.630384521484373,-6.352975845336914,1.1582326889038086,2.305042266845703,23.18212670898437
1765999736419163100,28.6491630859375,-3.0911450386047363,-1.212937355041504,0.8916297554969788,23.2009052734375
1765999736447331000,28.6773310546875,-0.0218042135238647,0.4063711166381836,-0.1654059886932373,23.229073242187496
1765999736466109700,28.696109619140625,0.4001555442810058,1.1003551483154297,-0.2889664769172668,23.247851806640625
1765999736494277600,28.724277587890622,0.9707459211349488,0.3445234298706054,0.9690055847167968,23.276019775390623
1765999736513056300,28.74305615234375,0.8179284334182739,-0.1433315277099609,2.457271814346313,23.29479833984375
1765999736531835000,28.7618349609375,0.3789398670196533,0.0530652999877929,2.9138941764831543,23.313577148437496
1765999736550613500,28.780613525390624,-0.1925522089004516,0.5275697708129883,2.234372138977051,23.332355712890624
1765999736569392400,28.799392333984372,-0.7013841867446899,0.6708889007568359,2.107624053955078,23.35113452148437
1765999736588171000,28.8181708984375,-0.8060431480407715,0.3667106628417969,1.7451127767562866,23.369913085937497
1765999736606949600,28.83694970703125,-0.7108350992202759,0.1509113311767578,0.9628595113754272,23.38869189453125
1765999736635117600,28.86511767578125,0.231969952583313,0.0137062072753906,0.2288604378700256,23.416859863281246
1765999736653896200,28.88389624023437,0.1993982791900634,-0.1709222793579101,0.946166217327118,23.435638427734368
1765999736672674800,28.9026748046875,0.4293998479843139,-0.1987104415893554,1.2903294563293457,23.454416992187497
1765999736691453400,28.921453369140625,0.4766287207603454,-0.2382125854492187,0.5126407742500305,23.473195556640626
