time,seconds_elapsed,z,y,x,t
1765999732715079000,24.94507885742188,-0.4294379353523254,-0.6848557591438293,0.2183077931404113,19.473347900390632
1765999732733857500,24.963857421875,-0.2722929716110229,-0.7416661977767944,0.5458840131759644,19.492126464843754
1765999732752636200,24.98263623046875,0.0091629717499017,-0.722882091999054,1.0428224802017212,19.5109052734375
1765999732771414800,25.001414794921875,0.3090975880622864,-0.7827468514442444,1.4992913007736206,19.529683837890627
1765999732790193400,25.020193359375,0.4610501825809479,-1.2963314056396484,1.4994440078735352,19.548462402343752
1765999732808972000,25.038971923828125,0.5346593856811523,-1.3436734676361084,1.2854886054992676,19.567240966796877
1765999732827750700,25.05775073242188,0.4053087830543518,-1.2341759204864502,1.2169189453125,19.586019775390632
1765999732846529300,25.076529296875,0.5270236134529114,-0.881706953048706,1.1940115690231323,19.604798339843754
1765999732865308000,25.095307861328124,0.8717040419578552,-0.7957277297973633,1.097036838531494,19.623576904296876
1765999732884086500,25.11408642578125,1.3055707216262815,-1.299233078956604,0.845360517501831,19.64235546875
1765999732902865200,25.132865234375,1.6552908420562744,-2.083430767059326,0.4942659735679626,19.661134277343752
1765999732921643800,25.151643798828125,1.9184207916259768,-2.731100082397461,0.0851392820477485,19.679912841796877
1765999732940422400,25.17042236328125,2.140317440032959,-2.8745005130767822,-0.367969661951065,19.698691406250003
1765999732959201000,25.189200927734376,2.308305263519287,-2.4442989826202397,-1.107879638671875,19.717469970703128
1765999732977979600,25.207979736328124,2.3788602352142334,-2.09167742729187,-2.1513893604278564,19.736248779296876
1765999732996758300,25.22675830078125,2.161850452423096,-1.9501094818115237,-3.290041446685791,19.75502734375
1765999733015537000,25.24553686523437,1.868635416030884,-2.152916669845581,-4.323318958282471,19.773805908203123
1765999733034315500,25.2643154296875,1.5964951515197754,-2.807610988616944,-3.806680202484131,19.79258447265625
1765999733053094100,25.28309423828125,1.4262166023254397,-3.8137052059173584,-4.323318958282471,19.811363281250003
1765999733071872800,25.301872802734376,1.471267819404602,-4.4373979568481445,-2.6570327281951904,19.830141845703128
1765999733090651400,25.3206513671875,1.379027247428894,-5.103546142578125,-2.9743006229400635,19.848920410156254
1765999733109430000,25.339429931640623,0.9637919068336488,-2.781190872192383,-2.6570327281951904,19.867698974609375
1765999733128208600,25.35820874023437,1.1548398733139038,-0.4844921231269836,-3.2915685176849365,19.886477783203123
1765999733146987300,25.3769873046875,1.0903936624526978,-0.8216894865036011,-2.7527856826782227,19.905256347656252
1765999733165766000,25.395765869140625,0.5430588126182556,0.1763108521699905,-1.789299249649048,19.924034912109377
1765999733184544500,25.41454443359375,0.2370155304670334,0.9450841546058656,-1.0642027854919434,19.942813476562502
1765999733203323100,25.4333232421875,0.2374736815690994,1.3671917915344238,-0.6295725107192993,19.961592285156254
1765999733222101800,25.452101806640623,0.1087339296936988,1.307785153388977,-0.0455857850611209,19.980370849609375
1765999733240880400,25.47088037109375,0.009621120058,1.334052324295044,0.5695550441741943,19.9991494140625
1765999733259658800,25.48965869140625,-0.1243109852075576,1.2393683195114136,1.0435861349105835,20.017927734375004
1765999733278437600,25.508437744140625,-0.263893574476242,1.0345758199691772,1.4530181884765625,20.036706787109377
1765999733297216000,25.527216064453125,-0.4381427764892578,0.9623411297798156,1.85496723651886,20.055485107421877
1765999733315995000,25.54599487304688,-0.6079631447792053,0.9194278717041016,2.223929643630981,20.07426391601563
1765999733334773200,25.564773193359372,-0.7270817756652832,0.9084323048591614,2.471940755844116,20.093042236328124
1765999733353552000,25.5835517578125,-0.7979421019554138,0.9174425601959229,2.639470338821411,20.111820800781253
1765999733372330500,25.60233056640625,-0.8362739086151123,0.9261473417282104,2.7657666206359863,20.130599609375
1765999733391109000,25.621109130859374,-0.8994984030723572,0.8931606411933899,2.8338780403137207,20.149378173828126
1765999733409887700,25.6398876953125,-0.951727330684662,0.7743474841117859,2.859381675720215,20.16815673828125
1765999733428666400,25.658666259765624,-1.015562653541565,0.663780927658081,2.8494551181793213,20.186935302734376
1765999733447445000,25.677445068359376,-1.103221774101257,0.6188823580741882,2.78516149520874,20.205714111328128
1765999733466223600,25.6962236328125,-1.2220350503921509,0.58039790391922,2.667264699935913,20.224492675781253
1765999733485002200,25.715002197265623,-1.3191624879837036,0.5461894869804382,2.4783546924591064,20.243271240234375
1765999733503780900,25.73378076171875,-1.3608540296554563,0.4930442273616791,2.245004415512085,20.262049804687503
1765999733522559500,25.7525595703125,-1.3918553590774536,0.507094144821167,2.019289970397949,20.28082861328125
1765999733541338000,25.771338134765625,-1.4495820999145508,0.4725802540779114,1.7605886459350586,20.299607177734377
1765999733560116700,25.79011669921875,-1.4494293928146362,0.4176024496555328,1.4294999837875366,20.318385742187502
1765999733578895400,25.808895263671875,-1.4072797298431396,0.5929206013679504,1.134146809577942,20.337164306640627
1765999733597674000,25.827674072265623,-1.3480257987976074,0.7405971884727478,0.8832340836524963,20.355943115234375
1765999733616452600,25.84645263671875,-1.1559088230133057,0.9120974540710448,0.6880627870559692,20.374721679687504
1765999733635231200,25.865231201171877,-0.8779653906822205,1.0215950012207031,0.500832736492157,20.39350024414063
1765999733654009900,25.884009765625,-0.69012451171875,0.8235220909118652,0.3097847998142242,20.41227880859375
1765999733672788500,25.90278857421875,-0.5597048401832581,0.5933787822723389,0.0562759190797805,20.431057617187502
1765999733700956400,25.930956298828125,-0.185550183057785,0.4403571486473083,-0.4250855147838592,20.459225341796877
1765999733719735000,25.94973510742188,0.2444986253976822,0.1282052397727966,-0.8400154113769531,20.478004150390632
1765999733738513700,25.968513671875,0.7880155444145203,-0.6792052984237671,-0.876667320728302,20.496782714843754
1765999733757292300,25.987292236328123,1.2597558498382568,-1.1564433574676514,-1.1810307502746582,20.515561279296875
1765999733776071000,26.00607080078125,0.8956804871559143,-1.4466041326522827,-0.5869646668434143,20.53433984375
1765999733794849500,26.024849609375,-0.3908007442951202,1.143920660018921,0.1337030231952667,20.553118652343752
1765999733813628200,26.043628173828125,0.3399462401866913,3.307451009750366,-0.4201986193656921,20.571897216796877
1765999733832406800,26.06240673828125,1.181717872619629,0.7709876894950867,-0.245338574051857,20.590675781250003
1765999733851185400,26.081185302734376,0.9779945015907288,-0.5920043587684631,-0.1433241516351699,20.609454345703128
1765999733869964000,26.099964111328124,0.5775726437568665,-0.395305871963501,-0.1883754283189773,20.628233154296876
1765999733888742700,26.11874267578125,0.3614792227745056,-0.3417024910449981,-0.194942221045494,20.64701171875
1765999733907521300,26.13752124023437,0.4518872201442718,-0.1589011996984481,-0.1411861181259155,20.665790283203123
1765999733935689200,26.16568920898437,0.3846921026706695,0.7882446646690369,-0.2372446060180664,20.693958251953124
1765999733954467800,26.1844677734375,0.314289927482605,0.8047379851341248,-0.1587484776973724,20.712736816406252
1765999733973246500,26.20324658203125,0.3135263621807098,0.4866301417350769,-0.080252356827259,20.731515625000004
1765999733992025000,26.222025146484373,0.296269416809082,0.2305250912904739,-0.0512362830340862,20.750294189453125
1765999734010803700,26.2408037109375,0.2557996213436126,0.0891098976135253,-0.0559704862534999,20.76907275390625
1765999734029582300,26.259582275390624,0.1945604383945465,0.1743255406618118,-0.076129026710987,20.787851318359376
1765999734048361000,26.27836083984375,0.1339320987462997,0.2964984774589538,-0.1117118969559669,20.8066298828125
1765999734067139600,26.2971396484375,0.0752890855073928,0.3036761581897735,-0.1453094631433487,20.825408691406253
1765999734085918200,26.315918212890622,0.0111482823267579,0.2439641207456588,-0.1694386154413223,20.844187255859374
1765999734104696800,26.33469677734375,-0.0601701810956001,0.1891390085220337,-0.1850156635046005,20.862965820312503
1765999734123475500,26.35347534179688,-0.1215620934963226,0.1711184978485107,-0.1983019858598709,20.881744384765632
1765999734142254000,26.372254150390624,-0.1609628647565841,0.1795178800821304,-0.2010508775711059,20.900523193359376
1765999734161032700,26.39103271484375,-0.2021962404251098,0.188069999217987,-0.2010508775711059,20.9193017578125
1765999734179811300,26.409811279296875,-0.2394589930772781,0.1607337892055511,-0.191735178232193,20.938080322265627
1765999734198590000,26.42858984375,-0.2721402645111084,0.1260672211647033,-0.1775325834751129,20.956858886718752
1765999734217368600,26.44736865234375,-0.2846629917621612,0.0881936028599739,-0.167300596833229,20.975637695312503
1765999734236147200,26.46614721679688,-0.2784016132354736,0.0952185466885566,-0.1508072465658188,20.994416259765632
1765999734254925800,26.48492578125,-0.2635881602764129,0.0999527499079704,-0.1126281917095184,21.01319482421875
1765999734273704400,26.503704345703124,-0.231212317943573,0.0034361144062131,-0.054443322122097,21.031973388671876
1765999734292483000,26.522483154296875,-0.2078467458486557,-0.1417969912290573,0.0231365039944648,21.050752197265627
1765999734311261700,26.54126171875,-0.2003636509180069,-0.2424369603395462,0.1051450967788696,21.069530761718752
1765999734330040300,26.56004028320313,-0.1769980639219284,-0.2923751473426819,0.1905134469270706,21.08830932617188
1765999734348819000,26.57881884765625,-0.1488982886075973,-0.3268890082836151,0.271147608757019,21.107087890625003
1765999734367597600,26.59759765625,-0.1295033395290374,-0.3704131245613098,0.3062723278999328,21.12586669921875
1765999734386376200,26.616376220703124,-0.1328630894422531,-0.4472293853759765,0.2766453921794891,21.144645263671876
1765999734405154800,26.63515478515625,-0.1472184062004089,-0.4672352075576782,0.2097556889057159,21.163423828125
1765999734423933400,26.65393334960937,-0.1809686869382858,-0.4534907341003418,0.1453094631433487,21.182202392578123
1765999734442712000,26.67271215820313,-0.2325867712497711,-0.5133554935455322,0.0851392820477485,21.20098120117188
1765999734461490700,26.69149072265625,-0.3045161068439483,-0.5651262998580933,0.0286342874169349,21.219759765625003
1765999734480269300,26.710269287109377,-0.3865246772766113,-0.5028180480003357,-0.0315358936786651,21.23853833007813
1765999734499048000,26.7290478515625,-0.4521926641464233,-0.3882809281349182,-0.0826958194375038,21.25731689453125
1765999734517826600,26.74782666015625,-0.4718930423259735,-0.2810741662979126,-0.1100320219993591,21.276095703125
1765999734536605200,26.76660522460937,-0.4546361267566681,-0.2195295244455337,-0.1162933856248855,21.294874267578123
1765999734555383800,26.7853837890625,-0.4268417656421661,-0.3012326955795288,-0.1022434905171394,21.313652832031252
1765999734574162400,26.804162353515625,-0.407446801662445,-0.4699840843677521,-0.073380134999752,21.332431396484377
1765999734592941000,26.822941162109377,-0.3947713673114776,-0.5628355145454407,-0.058719377964735,21.35121020507813
1765999734611719700,26.8417197265625,-0.38850998878479,-0.5237401723861694,-0.0573449321091175,21.36998876953125
1765999734630498300,26.860498291015624,-0.3663661479949951,-0.4768563210964203,-0.0718529671430587,21.388767333984376
1765999734649277000,26.87927685546875,-0.347123920917511,-0.4365392327308655,-0.0742964297533035,21.4075458984375
1765999734677444900,26.90744482421875,-0.3353647589683532,-0.3841575980186462,-0.072921983897686,21.435713867187502
1765999734696223500,26.926223388671875,-0.3226893246173858,-0.4179078638553619,-0.0764344558119773,21.454492431640627
1765999734715002000,26.945002197265627,-0.3083339929580688,-0.4910589158535003,-0.0868191570043563,21.47327124023438
1765999734733780700,26.96378076171875,-0.3026835024356842,-0.516257107257843,-0.0973565727472305,21.4920498046875
