time,seconds_elapsed,z,y,x,t
1765999725443071200,17.6730712890625,3.2547037601470947,-1.5279521942138672,-0.9207299947738647,12.224813476562497
1765999725461849600,17.691849609375,2.013274669647217,-2.2522926330566406,2.4917702674865723,12.243591796875
1765999725480628200,17.710628173828123,0.3496365547180176,-1.3319425582885742,3.7145628929138175,12.262370361328122
1765999725499406800,17.72940673828125,-0.3231334686279297,-0.5944881439208984,4.7683539390563965,12.281148925781247
1765999725518185500,17.748185546875,-1.1513195037841797,-0.5326595306396484,5.264836311340332,12.299927734374998
1765999725536964000,17.766964111328125,-1.297459363937378,-0.3388481140136719,3.780677318572998,12.318706298828124
1765999725555742500,17.785742431640625,-0.6400425434112549,-0.2523069381713867,1.3697744607925415,12.337484619140623
1765999725574521000,17.80452099609375,0.7564259767532349,-0.1199283599853515,-0.2528136968612671,12.356263183593748
1765999725593299700,17.8232998046875,1.8605445623397827,0.2407741546630859,-0.7208240032196045,12.3750419921875
1765999725612078000,17.842078125,1.7243260145187378,0.4346857070922851,-0.4447138905525207,12.393820312499999
1765999725630856700,17.860856689453126,0.7144913673400879,0.4434576034545898,-0.0144543685019016,12.412598876953124
1765999725649635300,17.87963525390625,-0.1852824687957763,0.3633708953857422,-0.3354670405387878,12.43137744140625
1765999725668414000,17.8984140625,0.1284043788909912,0.1902418136596679,-0.370325893163681,12.450156249999997
1765999725696581600,17.92658154296875,1.2122639417648315,0.1073980331420898,0.7216880321502686,12.47832373046875
1765999725715360300,17.9453603515625,1.7188949584960938,-0.3073329925537109,0.4841110110282898,12.497102539062498
1765999725734139000,17.964138916015624,2.572722911834717,-0.3976831436157226,-0.0353045463562011,12.515881103515623
1765999725752917500,17.98291748046875,3.3335962295532227,-0.1600399017333984,-1.1566574573516846,12.534659667968748
1765999725771696000,18.001696044921875,3.0526015758514404,0.1487922668457031,-1.9305236339569087,12.553438232421874
1765999725790474500,18.020474609375,2.705775260925293,0.0012016296386718,-1.5330826044082642,12.572216796874999
1765999725809253000,18.03925317382813,1.7668815851211548,-0.3679361343383789,-0.1531806290149688,12.590995361328128
1765999725828031700,18.05803173828125,0.3821148872375488,-0.5395526885986328,0.963426411151886,12.60977392578125
1765999725856199400,18.086199462890622,-1.6474609375,-0.669281005859375,1.7282065153121948,12.637941650390621
1765999725874978000,18.10497802734375,-2.78589391708374,-0.4558305740356445,2.380371332168579,12.65672021484375
1765999725893756700,18.12375659179688,-2.836766004562378,-0.0894393920898437,3.289162397384644,12.675498779296879
1765999725912535300,18.142535400390624,-2.307183027267456,0.2239723205566406,4.141605854034424,12.694277587890623
1765999725931314000,18.16131396484375,-1.7581994533538818,0.4705257415771484,4.15529203414917,12.713056152343748
1765999725950092300,18.18009228515625,-1.1872258186340332,0.7888622283935547,2.94486927986145,12.731834472656248
1765999725968871000,18.19887084960937,-0.9512479305267334,2.5790023803710938,1.5874137878417969,12.75061303710937
1765999725987649500,18.2176494140625,-0.1786310672760009,2.9288454055786133,2.6165788173675537,12.769391601562498
1765999726006428200,18.23642822265625,-1.0351848602294922,1.2976198196411133,2.028345823287964,12.78817041015625
1765999726025206500,18.25520654296875,0.7194621562957764,0.675206184387207,0.4159324169158935,12.806948730468749
1765999726043985200,18.27398510742188,3.9815189838409424,1.0204877853393557,-1.9869415760040283,12.825727294921878
1765999726062763800,18.292763671875,7.21656322479248,2.762792587280273,-3.9145779609680176,12.844505859375
1765999726081542400,18.31154248046875,9.217328071594238,3.9838714599609375,-6.753081321716309,12.863284667968747
1765999726100321000,18.330321044921877,4.0625762939453125,1.709026336669922,-4.704692840576172,12.882063232421876
1765999726119099400,18.349099365234373,0.9669702053070068,-0.8519124984741211,1.9786925315856931,12.900841552734372
1765999726137878000,18.3678779296875,-0.0208017826080322,0.693913459777832,8.720860481262207,12.919620117187497
1765999726166046000,18.3960458984375,-3.5006728172302246,2.0103540420532227,7.909769058227539,12.947788085937498
1765999726184824300,18.41482421875,-1.3547601699829102,1.9798345565795896,0.1574019193649292,12.966566406249997
1765999726203603000,18.43360302734375,0.823976993560791,3.309638023376465,-5.87575101852417,12.985345214843749
1765999726222381600,18.452381591796875,2.3185837268829346,2.5413970947265625,-11.848191261291504,13.004123779296874
1765999726241160200,18.47116015625,3.077667236328125,-1.2862815856933594,-13.434085845947266,13.02290234375
1765999726259938800,18.48993872070313,2.5578513145446777,-0.9347705841064452,-7.683478832244873,13.041680908203128
1765999726278717200,18.50871728515625,0.225433349609375,1.0517940521240234,-3.616346120834351,13.06045947265625
1765999726297495800,18.527495849609377,-4.730417728424072,0.3928909301757812,1.2285091876983645,13.079238037109375
1765999726316274400,18.5462744140625,0.0311121940612792,-4.544049263000488,0.3628644943237304,13.098016601562497
1765999726335053000,18.565052978515624,-4.910837173461914,4.081921577453613,-0.1325502395629882,13.116795166015622
1765999726353831700,18.58383178710937,1.6268712282180786,3.1738595962524414,6.1107177734375,13.13557397460937
1765999726372610000,18.602610107421874,-0.2276266813278198,-2.136807441711426,0.7695560455322266,13.154352294921873
1765999726391388700,18.621388671875,1.005270004272461,0.1291484832763672,-4.000100612640381,13.173130859374998
1765999726410167300,18.640167236328125,0.1003115177154541,1.6621017456054688,-4.292156219482422,13.191909423828124
1765999726428946000,18.65894580078125,-0.6657922267913818,-0.8406352996826172,-2.0152368545532227,13.210687988281249
1765999726447724300,18.677724365234376,-1.315454602241516,-0.7851419448852539,-2.650252342224121,13.229466552734374
1765999726466503000,18.6965029296875,-1.7749818563461304,-0.3267040252685547,-2.2012007236480717,13.2482451171875
1765999726485281500,18.715281494140623,-2.01187515258789,-1.112781047821045,-1.806665539741516,13.267023681640621
1765999726504060200,18.73406005859375,-2.3035545349121094,-1.9828133583068848,-2.1078250408172607,13.28580224609375
1765999726522838800,18.7528388671875,-2.1722521781921387,-2.4381561279296875,-2.475249052047729,13.304581054687498
1765999726541617200,18.7716171875,-2.1251134872436523,-2.656506061553955,-2.5461695194244385,13.323359374999997
1765999726569785000,18.79978515625,-1.963940382003784,-2.91459321975708,-2.6545979976654053,13.351527343749998
1765999726588563700,18.818563720703125,-1.9834744930267332,-3.0899362564086914,-2.1700639724731445,13.370305908203123
1765999726607342000,18.837342041015624,-2.1772263050079346,-3.053309917449951,-1.6818352937698364,13.389084228515623
1765999726626120700,18.85612060546875,-2.197850227355957,-3.0738534927368164,-1.1047370433807373,13.407862792968748
1765999726644899300,18.8748994140625,-2.325492143630981,-2.95098876953125,-0.7199486494064331,13.4266416015625
1765999726663678000,18.893677978515623,-2.4560909271240234,-2.512800693511963,-0.5189149975776672,13.445420166015621
1765999726682456600,18.91245654296875,-2.5044915676116943,-2.085106372833252,-0.6378781795501709,13.46419873046875
1765999726701235000,18.93123486328125,-2.356569766998291,-1.947000503540039,-0.798387885093689,13.48297705078125
1765999726720013600,18.950013671875,-1.786036491394043,-1.6181297302246094,-0.4552296698093414,13.501755859374997
1765999726738792200,18.968792236328124,-1.6116728782653809,-0.9773540496826172,0.1502700746059417,13.520534423828122
1765999726757570800,18.98757080078125,-1.3823986053466797,-0.3320760726928711,0.8291656374931335,13.539312988281248
1765999726776349400,19.00634936523437,-1.3937835693359375,0.0722608566284179,1.1857075691223145,13.55809155273437
1765999726804517000,19.03451708984375,-1.6196684837341309,0.1636066436767578,1.6831938028335571,13.586259277343748
1765999726823295700,19.053295654296875,-2.3309760093688965,0.2954015731811523,2.5182137489318848,13.605037841796873
1765999726842074400,19.072074462890622,-1.658552646636963,2.5299272537231445,2.007683753967285,13.623816650390621
1765999726860853000,19.09085302734375,0.5941081047058105,7.240860939025879,3.112440586090088,13.64259521484375
1765999726879631400,19.10963134765625,3.0708460807800293,6.856662750244141,2.566209554672241,13.66137353515625
1765999726898410000,19.128409912109376,7.434516429901123,6.04815673828125,-3.5936262607574463,13.680152099609375
1765999726917188600,19.147188720703124,6.949697494506836,5.409071922302246,-10.586806297302246,13.698930908203122
1765999726935967200,19.16596728515625,2.122614860534668,4.032375335693359,-13.315444946289062,13.717709472656248
1765999726954745900,19.18474584960937,1.543673038482666,1.6268291473388672,-7.199087619781494,13.73648803710937
1765999726973524200,19.203524169921877,2.1795239448547363,-1.4953498840332031,0.1353980302810669,13.755266357421876
1765999726992302800,19.222302734375,0.7498317956924438,-3.001018524169922,4.357807159423828,13.774044921874998
1765999727011081500,19.24108154296875,-1.135894536972046,-2.537607192993164,5.865599632263184,13.792823730468749
1765999727029860000,19.25986010742188,-2.643909215927124,-2.273765563964844,6.3746771812438965,13.811602294921878
1765999727048638700,19.278638671875,-2.396345376968384,-1.412824630737305,5.069276809692383,13.830380859375
1765999727067417000,19.2974169921875,0.1317710876464843,0.7485132217407227,2.161531925201416,13.849159179687499
1765999727086195700,19.31619580078125,2.289375305175781,2.441329002380371,-0.578629195690155,13.86793798828125
1765999727104974300,19.334974365234373,3.0446176528930664,1.7169427871704102,-2.5499486923217773,13.886716552734372
1765999727133142300,19.36314233398437,3.5146737098693848,-0.3687019348144531,-2.381631851196289,13.91488452148437
1765999727151921000,19.3819208984375,3.193488597869873,0.2647285461425781,-1.0323058366775513,13.933663085937498
1765999727170699300,19.40069921875,1.8005619049072266,0.9752674102783204,-0.0167671740055084,13.952441406249998
1765999727189478000,19.419477783203124,0.4188345670700073,0.4069604873657226,0.7870514392852783,13.971219970703123
1765999727208256500,19.438256591796875,-0.3342058658599853,-0.4136905670166015,0.6129628419876099,13.989998779296874
1765999727227035100,19.45703515625,0.2837085723876953,-0.4066553115844726,-0.1132864356040954,14.00877734375
1765999727245813500,19.4758134765625,1.187746524810791,0.4995002746582031,-0.8869677782058716,14.027555664062499
1765999727264592100,19.494592041015625,3.3237345218658447,0.9101762771606444,-2.405205011367798,14.046334228515624
1765999727283370800,19.513370849609377,4.941991329193115,0.4994411468505859,-3.4340291023254395,14.065113037109375
1765999727302149400,19.5321494140625,4.9610371589660645,1.6058998107910156,-4.797660827636719,14.083891601562497
1765999727320928000,19.550927978515624,4.587461948394775,2.363977432250977,-5.877142906188965,14.102670166015622
1765999727339706600,19.56970654296875,3.102815628051758,2.50553035736084,-6.946733951568604,14.121448730468748
1765999727358485000,19.588485107421874,1.2091567516326904,1.9719371795654297,-7.0135650634765625,14.140227294921873
1765999727377263600,19.607263671875,-0.520829439163208,1.374100685119629,-5.541143894195557,14.159005859374998
1765999727396042200,19.626042236328125,-1.233511209487915,0.529749870300293,-2.5579466819763184,14.177784423828124
1765999727414820900,19.64482080078125,-1.396449089050293,-0.3789663314819336,-0.146434023976326,14.196562988281249
1765999727442988500,19.672988525390625,-0.3171432018280029,-1.081876277923584,0.8833948373794556,14.224730712890624
1765999727461767200,19.69176708984375,1.1429235935211182,-0.6396064758300781,2.108099460601806,14.24350927734375
1765999727480545800,19.7105458984375,0.9356787204742432,-0.2584867477416992,2.812380075454712,14.262288085937497
1765999727499324400,19.729324462890624,-0.0354390144348144,-0.4855432510375976,0.5850738286972046,14.281066650390622
