time,seconds_elapsed,z,y,x,t
1765999720396337400,12.62633740234375,2.4129159450531006,-2.5008039474487305,-3.416490316390991,7.154606445312502
1765999720415116000,12.645115966796874,2.641226530075073,-2.9844563007354736,-2.786077976226806,7.173385009765625
1765999720433894400,12.663894287109375,1.6800308227539062,-1.3332887887954712,-1.6526182889938354,7.1921633300781265
1765999720452673000,12.682673095703125,0.8020654320716858,-0.3441459536552429,-0.6482039093971252,7.210942138671876
1765999720471451400,12.701451416015624,0.5151117444038391,1.0596213340759275,-0.0176387205719947,7.229720458984375
1765999720490230000,12.72022998046875,0.1331685185432434,2.242713689804077,0.5307651162147522,7.248499023437501
1765999720509008600,12.739008544921877,-0.3075704276561737,2.66176700592041,0.969518780708313,7.267277587890628
1765999720527787000,12.757787109375,-0.5508472919464111,2.326707601547241,1.268689751625061,7.286056152343751
1765999720546565600,12.776565673828124,-0.7328850030899048,1.692782640457153,1.514715552330017,7.304834716796875
1765999720565344300,12.79534423828125,-0.9720385670661926,1.3629156351089478,1.779983639717102,7.323613281250002
1765999720584122600,12.81412255859375,-1.188895583152771,1.5302926301956177,1.939266562461853,7.342391601562501
1765999720602901200,12.8329013671875,-1.296255111694336,2.0200533866882324,1.95606541633606,7.361170410156251
1765999720621679600,12.8516796875,-1.310457706451416,2.580980062484741,1.908265233039856,7.379948730468752
1765999720640458200,12.870458251953124,-1.288313865661621,2.8870232105255127,1.8158719539642332,7.398727294921875
1765999720659236900,12.88923681640625,-1.2718204259872437,2.7468297481536865,1.701640248298645,7.417505859375001
1765999720678015200,12.90801513671875,-1.2299761772155762,2.3633594512939453,1.5591559410095217,7.436284179687502
1765999720696793900,12.9267939453125,-1.1281145811080933,1.8322125673294067,1.3998730182647705,7.455062988281251
1765999720715572200,12.945572265625,-1.0074687004089355,1.3791035413742063,1.2460877895355225,7.473841308593751
1765999720734350800,12.964350830078123,-0.9301943182945251,1.128954529762268,1.1207077503204346,7.492619873046874
1765999720753129500,12.98312939453125,-0.9359975457191468,1.0335068702697754,0.9766964316368104,7.511398437500001
1765999720771907800,13.001907958984376,-0.9430224895477296,1.0755038261413574,0.8015309572219849,7.530177001953127
1765999720790686500,13.0206865234375,-0.9260709881782532,1.3296235799789429,0.6291143894195557,7.548955566406252
1765999720809465000,13.039465087890624,-0.9359975457191468,1.5817580223083496,0.4197404682636261,7.5677341308593755
1765999720828243500,13.058243408203126,-0.9049961566925048,1.6147446632385254,0.0929278060793876,7.586512451171877
1765999720847022000,13.07702197265625,-0.8184061050415039,1.5316671133041382,-0.2644280791282654,7.605291015625002
1765999720865800400,13.095800537109374,-0.7655662894248962,1.3829214572906494,-0.6950877904891968,7.6240695800781255
1765999720884579000,13.1145791015625,-0.6397281289100647,1.153999924659729,-1.351309299468994,7.642848144531251
1765999720903357700,13.133357666015623,-0.3104720115661621,0.1123227626085281,-1.5892410278320312,7.661626708984374
1765999720922136000,13.152135986328124,-0.0177150778472423,-0.8178715705871582,-1.2650245428085327,7.6804050292968755
1765999720940914700,13.170914794921876,-0.250149130821228,-1.345353364944458,-0.8688787817955017,7.699183837890627
1765999720959693300,13.189693359375,-0.4899135529994964,-0.483881264925003,-0.7564796805381775,7.71796240234375
1765999720978471700,13.2084716796875,-0.171653002500534,0.1703549176454544,-0.6616429090499878,7.7367407226562515
1765999720997250300,13.227250244140626,0.0148134706541895,0.1230128929018974,-0.5185478329658508,7.755519287109377
1765999721016029000,13.24602880859375,0.0690277218818664,-0.1512653976678848,-0.4774671792984009,7.7742978515625
1765999721034807300,13.264807373046876,0.0601701810956001,-0.1587484776973724,-0.4646390080451965,7.793076416015627
1765999721053586000,13.2835859375,0.0699440166354179,0.2183077931404113,-0.3794233798980713,7.811854980468751
1765999721072364300,13.3023642578125,0.0923933014273643,0.5823832154273987,-0.2622900605201721,7.83063330078125
1765999721091143000,13.321142822265625,0.0733037739992141,0.7990874648094177,-0.127594381570816,7.849411865234376
1765999721109921500,13.339921630859376,0.0595593154430389,0.6810378432273865,-0.0475710928440094,7.868190673828127
1765999721128700000,13.358699951171875,0.0610864795744419,0.4638754427433014,0.0272598415613174,7.886968994140626
1765999721147478500,13.377478515625,0.0335975624620914,0.4571559429168701,0.0932332351803779,7.905747558593752
1765999721166257200,13.396257080078126,-0.0097738364711403,0.5735256671905518,0.1358410567045211,7.924526123046877
1765999721194424800,13.4244248046875,-0.0891862586140632,0.7282271981239319,0.1564577370882034,7.952693847656252
1765999721213203500,13.443203369140624,-0.0901025533676147,0.6885209679603577,0.1850156635046005,7.971472412109375
1765999721231981800,13.46198193359375,-0.1079703494906425,0.4840339720249176,0.1983019858598709,7.990250976562501
1765999721250760400,13.480760498046877,-0.1719584316015243,0.2241110205650329,0.1775325834751129,8.009029541015629
1765999721269539000,13.4995390625,-0.2112064957618713,0.1402698308229446,0.2286925017833709,8.02780810546875
1765999721288317400,13.5183173828125,-0.1908952444791793,0.0915533602237701,0.3293324708938598,8.04658642578125
1765999721307096000,13.537095947265623,-0.1986837685108184,0.0319940410554409,0.4092030525207519,8.065364990234375
1765999721325874400,13.55587451171875,-0.2432768940925598,0.0121409371495246,0.4767036139965057,8.0841435546875
1765999721344653000,13.574653076171876,-0.2877173125743866,0.0309250298887491,0.5347357392311096,8.102922119140626
1765999721363431700,13.593431640625,-0.34193155169487,0.0431423261761665,0.5548942685127258,8.121700683593751
1765999721382210000,13.6122099609375,-0.4401280879974365,0.0403934344649314,0.5399280786514282,8.14047900390625
1765999721410378000,13.6403779296875,-0.5989528894424438,0.0139735322445631,0.502359926700592,8.168646972656251
1765999721429156400,13.65915625,-0.7116574645042419,-0.0026725335046648,0.4382191300392151,8.18742529296875
1765999721447935000,13.67793505859375,-0.8202387094497681,-0.0045051276683807,0.3630827665328979,8.206204101562502
1765999721466713600,13.696713623046875,-0.892015278339386,-0.0561232008039951,0.2998582422733307,8.224982666015627
1765999721485492200,13.7154921875,-0.9508110284805298,-0.1868482679128646,0.2419788092374801,8.243761230468753
1765999721504270600,13.7342705078125,-1.0244202613830566,-0.4001927971839905,0.1059086844325065,8.262539550781252
1765999721523049200,13.75304931640625,-1.1055124998092651,-0.5232820510864258,-0.1289688199758529,8.281318359375
1765999721541827600,13.77182763671875,-1.153923511505127,-0.3261254429817199,-0.2654971182346344,8.300096679687503
1765999721560606200,13.790606201171874,-0.9900590777397156,-0.2415206581354141,-0.1636354029178619,8.318875244140624
1765999721579384800,13.809384765625,-0.4740310609340668,-0.1689804643392563,0.1414915472269058,8.33765380859375
1765999721598163200,13.8281630859375,0.1985310465097427,-0.7795398235321045,0.58039790391922,8.356432128906253
1765999721616941800,13.84694189453125,1.3306162357330322,-2.1384084224700928,1.4110212326049805,8.3752109375
1765999721635720400,13.865720458984375,2.4434590339660645,-2.770806312561035,2.278754711151123,8.393989501953126
1765999721654498800,13.884498779296877,3.077231407165528,-2.7013204097747803,2.826242208480835,8.412767822265629
1765999721673277400,13.90327734375,3.209789037704468,-2.038074016571045,3.1438920497894287,8.43154638671875
1765999721692056000,13.92205615234375,3.0805912017822266,-0.8073341846466064,3.172297239303589,8.450325195312502
1765999721720223700,13.9502236328125,2.744310140609741,0.9082795977592468,2.599458694458008,8.47849267578125
1765999721739002400,13.96900244140625,2.507752656936645,1.8392374515533447,1.9557600021362305,8.497271484375002
1765999721757780700,13.98778076171875,2.329074621200561,2.3215153217315674,1.2221113443374634,8.516049804687501
1765999721776559400,14.006559326171876,2.130849123001098,1.996077060699463,0.4420370161533355,8.534828369140627
1765999721795338000,14.025337890625,1.99798595905304,0.9997565746307372,-0.3048978745937347,8.553606933593752
1765999721814116400,14.044116455078123,1.9237658977508545,-0.2477820217609405,-0.8820123672485352,8.572385498046874
1765999721832895000,14.06289501953125,1.824958562850952,-1.338786482810974,-1.324583888053894,8.591164062500003
1765999721851673600,14.081673583984376,1.7067562341690063,-1.9349905252456665,-1.635666847229004,8.609942626953128
1765999721870452000,14.100451904296875,1.5570943355560305,-1.982485294342041,-1.8991022109985352,8.628720947265627
1765999721898620000,14.128619873046874,1.4117084741592407,-1.237993836402893,-2.509661674499512,8.656888916015625
1765999721917398500,14.1473984375,1.6470441818237305,-0.8030580878257751,-3.158247232437134,8.67566748046875
1765999721936177000,14.166177001953123,1.9372049570083616,-0.8606321215629578,-3.8552439212799072,8.694446044921875
1765999721954955500,14.18495556640625,2.090532064437866,-1.6281837224960327,-4.505662441253662,8.713224609375
1765999721973734100,14.203734130859376,2.070526123046875,-2.923522472381592,-4.944568634033203,8.732003173828126
1765999721992512500,14.222512451171877,2.008523464202881,-4.372646331787109,-5.194259643554688,8.750781494140629
1765999722011291100,14.241291015625,1.8286237716674805,-6.508993148803711,-4.625544548034668,8.76956005859375
1765999722030069800,14.26006982421875,0.795040488243103,-6.6388020515441895,-3.158705472946167,8.788338867187502
1765999722048848100,14.27884814453125,0.2417497336864471,-4.766654014587402,-2.924591541290283,8.807117187500001
1765999722067626800,14.297626708984374,0.9259182810783386,-1.7581452131271362,-2.997131586074829,8.825895751953126
1765999722095794400,14.32579443359375,-0.2918406426906585,2.350836753845215,-2.2909719944000244,8.854063476562501
1765999722114573000,14.344572998046877,-0.8237511515617371,3.4207663536071777,-1.82488214969635,8.872842041015627
1765999722133351700,14.3633515625,-1.1368193626403809,2.7219371795654297,-1.173547625541687,8.891620605468752
1765999722152130000,14.382130126953124,-1.282663345336914,1.7958661317825315,-0.2951240539550781,8.910399169921874
1765999722170908700,14.40090869140625,-1.2594504356384275,1.657199740409851,0.5487856268882751,8.929177734375003
1765999722189687300,14.419687255859374,-1.2568542957305908,2.432692527770996,1.2373830080032349,8.947956298828124
1765999722208465700,14.438465576171875,-1.311526656150818,3.5073564052581787,1.773111343383789,8.966734619140627
1765999722227244300,14.457244384765623,-1.2101231813430786,4.163578033447266,2.2277474403381348,8.985513427734375
1765999722246023000,14.47602294921875,-1.1253656148910522,4.095466613769531,2.577925682067871,9.0042919921875
1765999722264801300,14.49480126953125,-1.0474803447723389,3.58111834526062,2.835252523422241,9.0230703125
1765999722283580000,14.513579833984377,-0.9723440408706664,2.9986588954925537,3.0043094158172607,9.041848876953129
1765999722302358500,14.532358642578124,-0.963333785533905,2.471482515335083,3.1011314392089844,9.060627685546876
1765999722330526200,14.560526123046875,-0.97600919008255,2.0060036182403564,3.148015260696411,9.088795166015625
1765999722349304800,14.579304931640625,-1.0296125411987305,1.836183190345764,3.125413179397583,9.107573974609377
1765999722368083500,14.59808349609375,-1.0987930297851562,1.7257694005966189,3.0620360374450684,9.126352539062502
1765999722386861800,14.61686181640625,-1.1684316396713257,1.5858813524246216,2.9398632049560547,9.145130859375001
1765999722405640400,14.635640380859376,-1.2344050407409668,1.4078142642974854,2.730336427688598,9.163909423828127
1765999722424419000,14.654419189453124,-1.2570070028305054,1.116431713104248,2.44093918800354,9.182688232421874
1765999722443197400,14.673197509765624,-1.2148573398590088,0.8459713459014893,2.130467176437378,9.201466552734374
