time,seconds_elapsed,z,y,x,t
1765999724429028900,16.65902880859375,-4.348522663116455,-0.0778608322143554,2.808143138885498,11.210770996093748
1765999724447807500,16.677807373046875,-2.6165671348571777,0.9762897491455078,1.44672429561615,11.229549560546873
1765999724466586000,16.696586181640626,-0.1049041748046875,2.2974681854248047,0.303709864616394,11.248328369140625
1765999724485364700,16.71536474609375,2.825103759765625,-0.1100273132324218,1.0283381938934326,11.26710693359375
1765999724504143000,16.73414306640625,3.2125494480133057,-1.1803722381591797,-0.8863016366958618,11.28588525390625
1765999724522921700,16.752921630859376,3.681087017059326,0.6767063140869141,-0.7428929209709167,11.304663818359375
1765999724541700400,16.771700439453124,5.478578567504883,2.784996032714844,-1.6226284503936768,11.323442626953122
1765999724560479000,16.79047900390625,8.123050689697266,2.316415786743164,-4.60671854019165,11.342221191406248
1765999724579257300,16.80925732421875,7.470884323120117,3.132028579711914,-8.228569984436035,11.360999511718747
1765999724598036000,16.828035888671874,5.690694808959961,7.653218269348144,-11.154623031616213,11.379778076171872
1765999724616814600,16.846814697265625,0.9779140949249268,7.94820499420166,-7.017070293426514,11.398556884765624
1765999724635593200,16.86559326171875,-4.1223249435424805,2.4824371337890625,-1.31255841255188,11.417335449218749
1765999724654371600,16.88437158203125,-5.675734043121338,-0.1241836547851562,2.9488778114318848,11.436113769531248
1765999724673150200,16.903150146484375,-2.4498088359832764,-1.495154857635498,4.3709259033203125,11.454892333984374
1765999724691928800,16.9219287109375,0.7008671760559082,-1.7448854446411133,2.508024215698242,11.473670898437499
1765999724710707500,16.94070751953125,1.3607633113861084,-0.7462615966796875,0.48431396484375,11.49244970703125
1765999724729485800,16.95948583984375,-7.561889171600342,-4.088070392608643,-0.8204388618469238,11.51122802734375
1765999724748264400,16.978264404296876,3.6746301651000977,-6.851447105407715,-5.762018203735352,11.530006591796875
1765999724767043000,16.99704296875,-1.5720041990280151,3.3034143447875977,0.9042017459869384,11.54878515625
1765999724785821700,17.01582177734375,0.5003221035003662,0.912893295288086,5.977362155914307,11.567563964843748
1765999724804600000,17.03460009765625,0.0134072303771972,-3.234825611114502,2.834757089614868,11.586342285156247
1765999724823378700,17.053378662109374,0.9545190334320068,-0.6496152877807617,-0.9606022834777832,11.605120849609373
1765999724842157300,17.0721572265625,0.0412700772285461,-0.8292570114135742,-1.3761978149414062,11.623899414062498
1765999724860935700,17.090935791015625,-1.2117310762405396,-2.334380626678467,-1.838023781776428,11.642677978515623
1765999724879714300,17.10971435546875,-1.5794354677200315,-1.6786813735961914,-2.6241583824157715,11.661456542968748
1765999724898493000,17.128492919921875,-1.8044111728668213,-0.7042093276977539,-1.9110960960388184,11.680235107421874
1765999724917271600,17.147271484375,-2.219449043273926,-0.8614349365234375,-1.3332589864730835,11.699013671874999
1765999724936050000,17.1660498046875,-2.306201696395874,-1.5973167419433594,-1.5685179233551023,11.717791992187498
1765999724954828500,17.18482861328125,-2.342278957366944,-1.8304862976074217,-2.307525873184204,11.73657080078125
1765999724973607200,17.203607177734376,-2.4627573490142822,-2.1258673667907715,-2.817020893096924,11.755349365234375
1765999724992385800,17.2223857421875,-2.7874679565429688,-2.6062779426574707,-2.3053431510925293,11.7741279296875
1765999725011164200,17.2411640625,-3.1381430625915527,-3.0285940170288086,-1.6748195886611938,11.79290625
1765999725029942800,17.25994287109375,-3.210747480392456,-3.164469718933105,-1.618353247642517,11.811685058593747
1765999725048721400,17.278721435546874,-3.286384105682373,-3.008643627166748,-1.939829707145691,11.830463623046873
1765999725067500000,17.2975,-3.1264820098876958,-3.1081109046936035,-2.3303563594818115,11.849242187499998
1765999725086278400,17.3162783203125,-2.9922475814819336,-3.4277114868164062,-1.7209351062774658,11.868020507812497
1765999725105057000,17.33505712890625,-3.0128390789031982,-3.575789451599121,-1.458041787147522,11.886799316406249
1765999725123835600,17.353835693359375,-3.0083200931549072,-3.4418654441833496,-1.4863845109939575,11.905577880859374
1765999725142614300,17.3726142578125,-2.9166581630706787,-2.7732086181640625,-1.351381778717041,11.9243564453125
1765999725161392600,17.391392578125,-2.55808687210083,-1.569605827331543,-1.408506155014038,11.943134765624999
1765999725180171300,17.410171142578125,-2.18644380569458,-0.7380847930908203,-0.9592151641845704,11.961913330078124
1765999725208339200,17.438339111328126,-2.161560535430908,-0.3600873947143554,0.0278592109680175,11.990081298828125
1765999725227117600,17.45711767578125,-1.9063591957092283,-0.1659345626831054,0.6454005837440491,12.00885986328125
1765999725245896200,17.475896240234373,-1.413367748260498,-0.2781515121459961,1.6351039409637451,12.027638427734372
1765999725264674800,17.4946748046875,-1.2466301918029783,-0.3892889022827148,2.553593635559082,12.046416992187497
1765999725283453400,17.513453369140624,-2.3267087936401367,-0.0520792007446289,3.0423924922943115,12.065195556640623
1765999725302232000,17.532232177734375,-1.4772419929504397,2.280367851257324,2.4098362922668457,12.083974365234374
1765999725321010400,17.551010498046875,-0.9102063179016112,8.164825439453125,2.14823579788208,12.102752685546873
1765999725339789000,17.5697890625,0.4503681659698486,6.67713737487793,1.4709947109222412,12.121531249999999
1765999725367957000,17.59795703125,5.141031265258789,5.439533233642578,-7.767153739929199,12.14969921875
1765999725386735600,17.616735595703126,5.754820823669434,6.332854270935059,-12.254658699035645,12.168477783203125
1765999725405514000,17.635513916015626,3.288177013397217,4.222629547119141,-10.005719184875488,12.187256103515624
1765999725424292600,17.654292724609373,2.42718243598938,0.9831361770629884,-5.779782295227051,12.206034912109372
1765999725443071200,17.6730712890625,3.2547037601470947,-1.5279521942138672,-0.9207299947738647,12.224813476562497
1765999725461849600,17.691849609375,2.013274669647217,-2.2522926330566406,2.4917702674865723,12.243591796875
1765999725480628200,17.710628173828123,0.3496365547180176,-1.3319425582885742,3.7145628929138175,12.262370361328122
1765999725499406800,17.72940673828125,-0.3231334686279297,-0.5944881439208984,4.7683539390563965,12.281148925781247
1765999725518185500,17.748185546875,-1.1513195037841797,-0.5326595306396484,5.264836311340332,12.299927734374998
1765999725536964000,17.766964111328125,-1.297459363937378,-0.3388481140136719,3.780677318572998,12.318706298828124
1765999725555742500,17.785742431640625,-0.6400425434112549,-0.2523069381713867,1.3697744607925415,12.337484619140623
1765999725574521000,17.80452099609375,0.7564259767532349,-0.1199283599853515,-0.2528136968612671,12.356263183593748
1765999725593299700,17.8232998046875,1.8605445623397827,0.2407741546630859,-0.7208240032196045,12.3750419921875
1765999725612078000,17.842078125,1.7243260145187378,0.4346857070922851,-0.4447138905525207,12.393820312499999
1765999725630856700,17.860856689453126,0.7144913673400879,0.4434576034545898,-0.0144543685019016,12.412598876953124
1765999725649635300,17.87963525390625,-0.1852824687957763,0.3633708953857422,-0.3354670405387878,12.43137744140625
1765999725668414000,17.8984140625,0.1284043788909912,0.1902418136596679,-0.370325893163681,12.450156249999997
1765999725696581600,17.92658154296875,1.2122639417648315,0.1073980331420898,0.7216880321502686,12.47832373046875
1765999725715360300,17.9453603515625,1.7188949584960938,-0.3073329925537109,0.4841110110282898,12.497102539062498
1765999725734139000,17.964138916015624,2.572722911834717,-0.3976831436157226,-0.0353045463562011,12.515881103515623
1765999725752917500,17.98291748046875,3.3335962295532227,-0.1600399017333984,-1.1566574573516846,12.534659667968748
1765999725771696000,18.001696044921875,3.0526015758514404,0.1487922668457031,-1.9305236339569087,12.553438232421874
1765999725790474500,18.020474609375,2.705775260925293,0.0012016296386718,-1.5330826044082642,12.572216796874999
1765999725809253000,18.03925317382813,1.7668815851211548,-0.3679361343383789,-0.1531806290149688,12.590995361328128
1765999725828031700,18.05803173828125,0.3821148872375488,-0.5395526885986328,0.963426411151886,12.60977392578125
1765999725856199400,18.086199462890622,-1.6474609375,-0.669281005859375,1.7282065153121948,12.637941650390621
1765999725874978000,18.10497802734375,-2.78589391708374,-0.4558305740356445,2.380371332168579,12.65672021484375
1765999725893756700,18.12375659179688,-2.836766004562378,-0.0894393920898437,3.289162397384644,12.675498779296879
1765999725912535300,18.142535400390624,-2.307183027267456,0.2239723205566406,4.141605854034424,12.694277587890623
1765999725931314000,18.16131396484375,-1.7581994533538818,0.4705257415771484,4.15529203414917,12.713056152343748
1765999725950092300,18.18009228515625,-1.1872258186340332,0.7888622283935547,2.94486927986145,12.731834472656248
1765999725968871000,18.19887084960937,-0.9512479305267334,2.5790023803710938,1.5874137878417969,12.75061303710937
1765999725987649500,18.2176494140625,-0.1786310672760009,2.9288454055786133,2.6165788173675537,12.769391601562498
1765999726006428200,18.23642822265625,-1.0351848602294922,1.2976198196411133,2.028345823287964,12.78817041015625
1765999726025206500,18.25520654296875,0.7194621562957764,0.675206184387207,0.4159324169158935,12.806948730468749
1765999726043985200,18.27398510742188,3.9815189838409424,1.0204877853393557,-1.9869415760040283,12.825727294921878
1765999726062763800,18.292763671875,7.21656322479248,2.762792587280273,-3.9145779609680176,12.844505859375
1765999726081542400,18.31154248046875,9.217328071594238,3.9838714599609375,-6.753081321716309,12.863284667968747
1765999726100321000,18.330321044921877,4.0625762939453125,1.709026336669922,-4.704692840576172,12.882063232421876
1765999726119099400,18.349099365234373,0.9669702053070068,-0.8519124984741211,1.9786925315856931,12.900841552734372
1765999726137878000,18.3678779296875,-0.0208017826080322,0.693913459777832,8.720860481262207,12.919620117187497
1765999726166046000,18.3960458984375,-3.5006728172302246,2.0103540420532227,7.909769058227539,12.947788085937498
1765999726184824300,18.41482421875,-1.3547601699829102,1.9798345565795896,0.1574019193649292,12.966566406249997
1765999726203603000,18.43360302734375,0.823976993560791,3.309638023376465,-5.87575101852417,12.985345214843749
1765999726222381600,18.452381591796875,2.3185837268829346,2.5413970947265625,-11.848191261291504,13.004123779296874
1765999726241160200,18.47116015625,3.077667236328125,-1.2862815856933594,-13.434085845947266,13.02290234375
1765999726259938800,18.48993872070313,2.5578513145446777,-0.9347705841064452,-7.683478832244873,13.041680908203128
1765999726278717200,18.50871728515625,0.225433349609375,1.0517940521240234,-3.616346120834351,13.06045947265625
1765999726297495800,18.527495849609377,-4.730417728424072,0.3928909301757812,1.2285091876983645,13.079238037109375
1765999726316274400,18.5462744140625,0.0311121940612792,-4.544049263000488,0.3628644943237304,13.098016601562497
1765999726335053000,18.565052978515624,-4.910837173461914,4.081921577453613,-0.1325502395629882,13.116795166015622
1765999726353831700,18.58383178710937,1.6268712282180786,3.1738595962524414,6.1107177734375,13.13557397460937
1765999726372610000,18.602610107421874,-0.2276266813278198,-2.136807441711426,0.7695560455322266,13.154352294921873
1765999726391388700,18.621388671875,1.005270004272461,0.1291484832763672,-4.000100612640381,13.173130859374998
1765999726410167300,18.640167236328125,0.1003115177154541,1.6621017456054688,-4.292156219482422,13.191909423828124
1765999726428946000,18.65894580078125,-0.6657922267913818,-0.8406352996826172,-2.0152368545532227,13.210687988281249
1765999726447724300,18.677724365234376,-1.315454602241516,-0.7851419448852539,-2.650252342224121,13.229466552734374
1765999726466503000,18.6965029296875,-1.7749818563461304,-0.3267040252685547,-2.2012007236480717,13.2482451171875
