time,seconds_elapsed,z,y,x,t
1765999717302577400,9.532577392578125,-4.688109874725342,-1.2175416946411133,1.8983473777771,4.084319580078125
1765999717321356000,9.55135595703125,-3.9426419734954834,-0.7251968383789062,1.8003661632537842,4.10309814453125
1765999717340134400,9.570134521484375,-3.163379669189453,-0.5058755874633789,1.2524749040603638,4.1218767089843755
1765999717358912800,9.588912841796876,-2.615007162094116,-0.749516487121582,0.7546188235282898,4.140655029296877
1765999717377691400,9.60769140625,-2.2960989475250244,-0.9584922790527344,0.0978714227676391,4.15943359375
1765999717396470000,9.626469970703123,-2.981008291244507,-0.7929115295410156,-0.7601355314254761,4.178212158203124
1765999717415248400,9.645248291015625,-2.2196621894836426,-0.5720643997192383,-1.499084711074829,4.196990478515625
1765999717434027000,9.664027099609376,-1.4074418544769287,-0.7822408676147461,-0.183433711528778,4.215769287109376
1765999717452805400,9.682805419921875,-1.1942521333694458,-0.695713996887207,1.135447978973389,4.2345476074218755
1765999717471584000,9.701583984375,-1.02107572555542,-0.307530403137207,1.806095838546753,4.253326171875001
1765999717490362400,9.7203623046875,-0.6915802955627441,-0.0293245315551757,1.9692004919052124,4.2721044921875
1765999717509141000,9.73914111328125,-0.1415793895721435,0.1476030349731445,1.5620516538619995,4.29088330078125
1765999717527919400,9.75791943359375,0.1612155437469482,0.1083755493164062,0.963266372680664,4.309661621093751
1765999717546698000,9.776697998046876,0.4265470504760742,0.1489372253417968,0.5815224051475525,4.328440185546876
1765999717565476400,9.795476318359375,0.3725419044494629,0.3265390396118164,0.5223070979118347,4.3472185058593755
1765999717584255000,9.8142548828125,0.3603017330169678,0.411478042602539,0.4425710439682007,4.365997070312501
1765999717603033300,9.833033447265626,0.6842842102050781,0.5138921737670898,0.8767908215522766,4.384775634765626
1765999717631201300,9.861201171875,0.5661110877990723,0.6994457244873047,1.5233068466186523,4.412943359375001
1765999717649979600,9.879979736328124,0.5618252754211426,0.6355819702148438,1.944128155708313,4.431721923828125
1765999717668758300,9.89875830078125,0.6041131019592285,0.6924877166748047,2.046727418899536,4.45050048828125
1765999717687536600,9.91753662109375,0.5656869411468506,0.7923288345336914,1.949702262878418,4.469278808593751
1765999717706315300,9.936315185546874,0.6291093826293945,0.8245878219604492,1.7441871166229248,4.488057373046875
1765999717725093600,9.95509375,0.8652567863464355,0.834254264831543,1.6523513793945312,4.5068359375
1765999717743872300,9.973872314453123,0.8069534301757812,0.9303951263427734,1.8217978477478027,4.5256145019531235
1765999717762650600,9.992650634765624,0.9884085655212402,1.1551971435546875,2.1748247146606445,4.544392822265625
1765999717781429200,10.01142919921875,0.977557897567749,1.4589290618896484,2.1894044876098637,4.56317138671875
1765999717800207600,10.03020751953125,0.6029229164123535,1.8000717163085938,1.5910435914993286,4.581949707031251
1765999717818986200,10.048986328125,1.3868693113327026,2.15325927734375,0.8534765839576721,4.600728515625001
1765999717837764600,10.0677646484375,1.7043330669403076,1.396871566772461,-0.3012322783470154,4.6195068359375
1765999717856543200,10.086543212890623,2.0328962802886963,0.5890359878540039,-2.844187498092652,4.6382854003906235
1765999717875321900,10.10532177734375,1.1962388753890991,1.5549612045288086,-5.32264518737793,4.657063964843751
1765999717903489500,10.133489501953123,2.2619636058807373,3.8745813369750977,-5.6904377937316895,4.685231689453124
1765999717922268000,10.152267822265625,3.6988353729248047,2.1324758529663086,-2.624898910522461,4.704010009765625
1765999717941046500,10.171046630859376,3.666987895965576,-0.5771274566650391,-0.3556725978851318,4.722788818359376
1765999717959825000,10.189824951171875,3.3267593383789062,-0.9920377731323242,-0.0811402797698974,4.741567138671876
1765999717978603500,10.208603515625,2.7462925910949707,-0.3242025375366211,-0.0411105751991272,4.760345703125001
1765999717997382000,10.2273818359375,1.3353304862976074,-0.0377588272094726,-0.305364191532135,4.7791240234375
1765999718016160500,10.246160400390623,-0.3168929815292358,0.0450315475463867,-1.1102406978607178,4.797902587890624
1765999718034939100,10.264939208984377,-1.498538851737976,-0.0376348495483398,-0.958911657333374,4.816681396484377
1765999718053717500,10.283717529296876,-1.8698357343673704,-0.2822189331054687,0.1738632917404174,4.835459716796876
1765999718072496000,10.30249609375,-1.107112169265747,-0.2801170349121094,1.396541714668274,4.85423828125
1765999718091274500,10.3212744140625,0.0149687528610229,-0.1987867355346679,1.9184675216674805,4.873016601562501
1765999718110053000,10.34005322265625,0.4987515211105346,0.039926528930664,1.5353938341140747,4.89179541015625
1765999718128831500,10.35883154296875,0.9060808420181274,0.3141050338745117,0.4143103957176208,4.91057373046875
1765999718147610000,10.377610107421877,1.4135619401931765,0.228738784790039,-0.977779746055603,4.929352294921877
1765999718166388500,10.396388427734376,2.1426329612731934,0.0683126449584961,-2.2006006240844727,4.948130615234376
1765999718185167000,10.4151669921875,3.0207409858703613,0.026102066040039,-2.75543475151062,4.9669091796875
1765999718203945500,10.433945556640625,3.1492393016815186,0.1322994232177734,-2.40787672996521,4.985687744140625
1765999718222724000,10.45272412109375,2.8263401985168457,0.1646127700805664,-1.6791621446609497,5.00446630859375
1765999718241502700,10.471502685546875,2.121527194976806,0.1761283874511718,-1.3319401741027832,5.023244873046876
1765999718260281000,10.490281005859377,1.7164229154586792,0.3601236343383789,-1.3894240856170654,5.042023193359377
1765999718279059700,10.509059814453124,1.6777255535125732,0.7776088714599609,-1.6730008125305176,5.060802001953125
1765999718297838000,10.527838134765624,1.5837522745132446,0.7874641418457031,-1.9611406326293943,5.079580322265624
1765999718316616700,10.54661669921875,1.3594015836715698,1.1277961730957031,-2.201593399047852,5.098358886718751
1765999718335395000,10.56539501953125,1.038992404937744,1.4502840042114258,-2.563229322433472,5.11713720703125
1765999718354173700,10.584173583984375,0.8402184247970581,1.3867082595825195,-2.59952163696289,5.135915771484376
1765999718372952000,10.6029521484375,1.0099825859069824,1.2301578521728516,-2.400110244750977,5.154694335937501
1765999718391730700,10.621730712890624,0.6230216026306152,2.1079044342041016,-2.295816659927368,5.173472900390625
1765999718410509300,10.64050927734375,0.6003637313842773,2.3557233810424805,-1.340845823287964,5.19225146484375
1765999718429287700,10.65928759765625,0.3039650917053222,1.294032096862793,0.8219264149665833,5.211029785156251
1765999718448066300,10.67806640625,-0.0544154644012451,0.1738748550415039,2.049619197845459,5.2298085937500005
1765999718466844700,10.6968447265625,-0.4821267127990722,-0.440195083618164,2.1443514823913574,5.2485869140625
1765999718485623300,10.715623291015625,0.0137567520141601,-0.7736139297485352,1.6565587520599363,5.267365478515625
1765999718504401700,10.734401611328124,0.6423711776733398,-1.2135095596313477,0.7873782515525818,5.286143798828125
1765999718523180300,10.75318017578125,1.1621904373168943,-1.4920597076416016,-0.2914873659610748,5.30492236328125
1765999718551348000,10.781347900390625,1.5660653114318848,-1.5913639068603516,0.0327079594135284,5.333090087890625
1765999718570126600,10.800126708984376,1.6255981922149658,-1.5985684394836426,1.35545551776886,5.351868896484376
1765999718588905000,10.818905029296875,2.0513274669647217,-1.2805118560791016,3.072773694992065,5.3706472167968755
1765999718607683600,10.83768359375,3.355889320373535,-0.6087570190429688,4.274563312530518,5.389425781250001
1765999718626462200,10.856462158203126,1.9277129173278809,0.3279972076416015,4.826612949371338,5.408204345703126
1765999718645240600,10.875240478515623,1.3549492359161377,1.1304912567138672,3.3675928115844727,5.426982666015624
1765999718664019200,10.894019287109376,1.2402544021606443,1.4742803573608398,2.690108299255371,5.445761474609377
1765999718682797600,10.912797607421876,0.519890546798706,1.6213808059692385,3.4359240531921387,5.464539794921876
1765999718701576200,10.931576171875,-1.0905134677886963,1.4965248107910156,3.9011073112487793,5.483318359375
1765999718720354600,10.9503544921875,-3.1589760780334477,2.103809356689453,3.647818088531494,5.502096679687501
1765999718739133200,10.96913330078125,-3.2756004333496094,3.1609182357788086,2.691768169403076,5.52087548828125
1765999718757911800,10.987911865234375,-2.8736610412597656,4.527270317077637,1.585035800933838,5.539654052734376
1765999718776690200,11.006690185546876,1.5200122594833374,3.25040054321289,-1.4850668907165527,5.558432373046877
1765999718795468800,11.02546875,-4.921082496643066,-2.254417896270752,-2.7905819416046143,5.5772109375
1765999718814247200,11.0442470703125,0.303052544593811,4.228947639465332,-3.1541943550109863,5.5959892578125
1765999718833025800,11.06302587890625,-3.776246547698975,1.4758224487304688,3.916812419891357,5.614768066406251
1765999718861193500,11.091193359375,-0.2458090782165527,-2.321181297302246,-4.135421752929688,5.642935546875
1765999718879972000,11.10997216796875,-2.2966694831848145,-0.904932975769043,-4.92041540145874,5.661714355468751
1765999718898750500,11.12875048828125,-4.092626571655273,-2.997175693511963,-2.878854274749756,5.680492675781251
1765999718917529000,11.147529052734376,-4.081509113311768,-3.2415475845336914,-3.138519763946533,5.699271240234376
1765999718936307500,11.166307373046877,-3.5401554107666016,-2.2735748291015625,-2.881152629852295,5.718049560546877
1765999718955086000,11.185086181640624,-3.562231063842773,-2.1966066360473637,-2.370921850204468,5.736828369140625
1765999718973864400,11.203864501953126,-3.499711036682129,-2.61965274810791,-1.5200954675674438,5.755606689453126
1765999718992643000,11.22264306640625,-3.31091570854187,-2.783843994140625,-0.643573522567749,5.774385253906251
1765999719020810800,11.250810791015626,-3.128875970840454,-2.058640480041504,0.4720603227615356,5.802552978515626
1765999719039589400,11.26958935546875,-4.930023670196533,-1.2181997299194336,-0.8512285947799683,5.82133154296875
1765999719058368000,11.288367919921876,-3.518639326095581,-0.9389257431030272,-1.2842742204666138,5.840110107421877
1765999719077146400,11.307146484375,-2.7307252883911133,-0.9024877548217772,-0.154319018125534,5.858888671875
1765999719095924700,11.3259248046875,-1.5815706253051758,-0.2589921951293945,0.1434199512004852,5.8776669921875
1765999719114703400,11.344703369140625,-0.3891987800598144,0.2618551254272461,0.6372982263565063,5.896445556640625
1765999719133482000,11.36348193359375,-0.1568207740783691,1.007883071899414,1.1111335754394531,5.91522412109375
1765999719152260400,11.38226025390625,1.4489091634750366,2.5881404876708984,2.184173345565796,5.93400244140625
1765999719180428300,11.41042822265625,6.8740997314453125,4.615105628967285,-1.7127888202667236,5.962170410156251
1765999719199206700,11.42920654296875,6.10059928894043,6.653888702392578,-3.5335865020751958,5.98094873046875
1765999719217985300,11.4479853515625,0.5818467140197754,4.216996192932129,-5.309822082519531,5.9997275390625
1765999719236763600,11.466763671875,-3.1830499172210693,0.7802963256835938,-4.676805019378662,6.018505859375001
1765999719255542300,11.485542236328126,-2.585859775543213,-0.2626266479492187,1.1308774948120115,6.037284423828126
1765999719274321000,11.50432080078125,-1.0148804187774658,-1.3982267379760742,4.5338544845581055,6.05606298828125
1765999719293099300,11.523099365234376,0.2338862419128418,-1.3409080505371094,3.511873960494995,6.074841552734377
1765999719311878000,11.5418779296875,0.8339751362800598,0.5416927337646484,0.6946995258331299,6.0936201171875
1765999719330656300,11.56065625,0.2778599262237549,1.788799285888672,-0.4237146973609924,6.1123984375
1765999719349435000,11.579434814453125,0.0112556219100952,1.236130714416504,0.0414794087409973,6.131177001953125
