time,seconds_elapsed,z,y,x,t
1766001321630301000,1.666301025390625,-0.7333431839942932,-2.3604578971862797,0.3655261993408203,0.0
1766001321649081600,1.68508154296875,0.5658134818077087,-2.955440044403076,0.742429792881012,0.018780517578125044
1766001321667862500,1.703862548828125,0.8324559926986694,-1.5692352056503296,0.945847749710083,0.037561523437499966
1766001321686643200,1.722643310546875,0.754265308380127,-0.1767689883708953,1.1875975131988523,0.05634228515625006
1766001321705424000,1.741423828125,0.5174024701118469,0.8015309572219849,1.290833592414856,0.0751228027343751
1766001321724204800,1.760204833984375,0.0771216750144958,1.8853577375411987,1.1932480335235596,0.09390380859375003
1766001321742985500,1.7789853515625,-0.2557996213436126,2.5562400817871094,0.8343649506568909,0.11268432617187507
1766001321761766400,1.797766357421875,-0.5395463109016418,2.5282928943634038,0.3197113573551178,0.13146533203125
1766001321780547000,1.816547119140625,-0.9747874736785888,2.043419122695923,-0.1014799103140831,0.1502460937500001
1766001321799328000,1.835327880859375,-1.2067633867263794,0.7735838890075684,-0.8216894865036011,0.16902685546874996
1766001321818108700,1.854108642578125,-1.3608540296554563,-0.6341540217399597,-1.6573524475097656,0.18780761718750005
1766001321836889600,1.8728896484375,-1.6675081253051758,-1.2554035186767578,-2.155207395553589,0.20658862304687498
1766001321855670300,1.891670166015625,-2.0584616661071777,-1.5933644771575928,-2.395582675933838,0.22536914062500002
1766001321874451000,1.910450927734375,-1.964388370513916,-1.600542068481445,-2.1717007160186768,0.2441499023437501
1766001321893231900,1.92923193359375,-1.6905683279037476,-0.69722580909729,-1.0843613147735596,0.26293090820312504
1766001321921403100,1.957403076171875,-0.4066832363605499,-1.0515273809432983,-0.2772562503814697,0.29110205078125007
1766001321940183800,1.976183837890625,0.1021671369671821,-0.5309178233146667,-1.0932189226150513,0.30988281249999994
1766001321958964500,1.994964599609375,-0.5076286196708679,-1.215849995613098,-0.4078285992145538,0.32866357421875003
1766001321977745400,2.013745361328125,-0.5963567495346069,-0.4679987728595733,-0.1909715980291366,0.3474443359374999
1766001321996526000,2.032526123046875,0.0123700117692351,-0.4646390080451965,-0.1230128929018974,0.3662250976562502
1766001322015307000,2.05130712890625,0.1130099818110466,-0.3942368626594543,0.2647335231304168,0.38500610351562514
1766001322034087700,2.070087646484375,0.365449845790863,-0.3418551981449127,0.7169261574745178,0.40378662109374996
1766001322052868600,2.08886865234375,1.0470222234725952,0.2456440031528473,0.8458186388015747,0.4225676269531249
1766001322071649300,2.107649169921875,1.439502835273743,0.8844558596611023,0.8032108545303345,0.44134814453125015
1766001322090430000,2.126429931640625,1.2701406478881836,1.5496876239776611,0.8653663396835327,0.46012890625
1766001322109211000,2.1452109375,0.9772309064865112,2.3196825981140137,0.9766964316368104,0.47890991210937517
1766001322127991600,2.163991455078125,0.9784526824951172,2.7187299728393555,1.12360942363739,0.4976904296875
1766001322146772500,2.1827724609375,1.3245075941085815,2.597015142440796,1.1029927730560305,0.5164714355468749
1766001322165553200,2.20155322265625,1.458897829055786,2.093968152999878,0.7827468514442444,0.5352521972656248
1766001322184334000,2.220333984375,1.2168426513671875,1.4820343255996704,0.4114937782287597,0.5540329589843747
1766001322203114800,2.23911474609375,0.8979712128639221,0.8682679533958435,0.1112537458539009,0.5728137207031254
1766001322221895700,2.257895751953125,0.5705476999282837,0.1892917305231094,-0.2213621288537979,0.5915947265625003
1766001322240676400,2.27667626953125,0.2234237939119339,-0.4311941862106323,-0.5930733680725098,0.6103752441406252
1766001322259457300,2.295457275390625,-0.2994764447212219,-0.7085267901420593,-1.1633156538009644,0.6291562500000001
1766001322278238000,2.314238037109375,-1.2003493309020996,-0.9165262579917908,-1.636277675628662,0.64793701171875
1766001322297018600,2.3330185546875,-2.1032073497772217,-1.305341720581055,-1.916817307472229,0.6667175292968748
1766001322315799600,2.351799560546875,-2.5105016231536865,-1.593211650848389,-1.1879029273986816,0.6854985351562497
1766001322334580200,2.370580322265625,-0.845894992351532,-2.309603452682495,-0.303523451089859,0.7042792968750005
1766001322353361200,2.389361083984375,-0.3877464234828949,0.3603338599205017,-1.3933062553405762,0.7230600585937503
1766001322372141800,2.408141845703125,-1.004109025001526,-0.015653409063816,-0.815122663974762,0.7418408203125002
1766001322390922500,2.426922607421875,-1.400712966918945,-0.8221476078033447,-0.0359646640717983,0.7606215820312501
1766001322409703400,2.445703369140625,-0.8177952170372009,0.3569740951061249,0.3991237878799438,0.77940234375
1766001322428484000,2.464484130859375,0.0569631420075893,0.0744491443037986,0.5657371282577515,0.7981831054687498
1766001322447265000,2.48326513671875,0.3755291104316711,0.1805869042873382,0.7949641346931458,0.8169641113281247
1766001322466045700,2.502045654296875,0.5893318057060242,0.7030289769172668,0.945542335510254,0.8357446289062505
1766001322484826600,2.52082666015625,0.8420770764350891,1.065424561500549,0.9169843792915344,0.8545256347656254
1766001322503607300,2.539607177734375,0.8469640016555786,1.4450769424438477,0.8111520409584045,0.8733061523437502
1766001322522388200,2.55838818359375,0.800385594367981,1.929187297821045,0.6871465444564819,0.8920871582031251
1766001322541169000,2.5771689453125,0.8139773011207581,2.127260208129883,0.5034289360046387,0.910867919921875
1766001322559949800,2.59594970703125,0.781143307685852,1.9565235376358032,0.2624427676200866,0.9296486816406249
1766001322578730500,2.61473046875,0.5809323787689209,1.184237718582153,-0.1827249228954315,0.9484294433593747
1766001322597511200,2.63351123046875,0.1547015011310577,0.3641517758369446,-0.7661007642745972,0.9672102050781246
1766001322616292000,2.6522919921875,-0.3016144931316376,-0.0793360620737075,-1.2697588205337524,0.9859909667968754
1766001322635072800,2.67107275390625,-0.7560978531837463,-0.234190285205841,-1.5750384330749512,1.0047717285156252
1766001322653853700,2.689853759765625,-1.1496474742889404,-0.4053851366043091,-1.7479132413864136,1.0235527343750002
1766001322672634400,2.70863427734375,-1.3910918235778809,-0.2922224402427673,-1.8436663150787356,1.042333251953125
1766001322691415300,2.727415283203125,-1.574809432029724,-0.1340084671974182,-2.0055453777313232,1.0611142578125
1766001322710196000,2.746196044921875,-1.852752923965454,-0.0040469793602824,-2.1012985706329346,1.0798950195312498
1766001322728977000,2.764976806640625,-2.0208933353424072,-0.3227656781673431,-1.854509115219116,1.0986757812499997
1766001322747757600,2.783757568359375,-1.3179407119750977,-0.1107956022024154,-0.677678108215332,1.1174565429687504
1766001322766538200,2.802538330078125,-0.050854492932558,-0.2322049736976623,-0.7488438487052917,1.1362373046875003
1766001322785319200,2.821319091796875,-0.1221729591488838,0.524503767490387,-1.0866520404815674,1.1550180664062502
1766001322804099800,2.840099853515625,-0.999069333076477,-1.3600140810012815,-0.3753000497817993,1.173798828125
1766001322822880800,2.858880859375,-0.4334085583686828,-0.8670461773872375,0.2612210512161255,1.192579833984375
1766001322841661400,2.877661376953125,0.4358520209789276,-0.8620065450668335,0.4241692423820495,1.2113603515624998
1766001322860442400,2.8964423828125,0.813671886920929,-1.106657862663269,0.6871465444564819,1.2301413574218747
1766001322879223000,2.91522314453125,0.7866411209106445,-0.1624136716127395,0.976238250732422,1.2489221191406255
1766001322898004000,2.93400390625,0.9190460443496704,0.8198568820953369,1.1320087909698486,1.2677028808593753
1766001322916784600,2.95278466796875,1.004414439201355,1.2824342250823977,1.2092832326889038,1.2864836425781252
1766001322935565300,2.9715654296875,0.9410371780395508,1.7152318954467771,1.1857649087905884,1.305264404296875
1766001322954346200,2.99034619140625,0.9251546859741212,2.2152247428894043,1.1559852361679075,1.324045166015625
1766001322973127000,3.009126953125,1.091309905052185,2.538524866104126,1.1526254415512085,1.3428259277343748
1766001322991907800,3.027907958984375,1.2070688009262085,2.435136079788208,1.0408371686935425,1.3616069335937497
1766001323010688500,3.0466884765625,0.9912807941436768,1.6535346508026123,0.6527853608131409,1.3803874511718754
1766001323029469400,3.065469482421875,0.5125155448913574,0.6665298342704773,-0.0547487549483776,1.3991684570312504
1766001323048250000,3.08425,-0.1426369249820709,-0.0516944304108619,-0.8120683431625366,1.4179489746093752
1766001323076421400,3.11242138671875,-1.2096649408340454,-0.9206495881080629,-1.624976634979248,1.446120361328125
1766001323095202000,3.1312021484375,-1.3626866340637207,-1.2859467267990112,-1.8337397575378416,1.464901123046875
1766001323113983000,3.14998291015625,-0.8573487401008606,-0.9478330612182616,-0.646065890789032,1.4836818847656248
1766001323132763600,3.168763671875,-0.1798996776342392,-0.7674752473831177,-0.7311288118362427,1.5024626464843747
1766001323151544600,3.187544677734375,-0.499381959438324,-0.3388008773326874,-1.1057416200637815,1.5212436523437505
1766001323170325200,3.2063251953125,-1.264337420463562,-2.248058795928955,-0.6083449721336365,1.5400241699218753
1766001323189106200,3.225106201171875,-0.6969966888427734,-2.055025577545166,-0.0358119495213031,1.5588051757812502
1766001323207886800,3.243886962890625,0.1663079410791397,-1.1255947351455688,0.213420882821083,1.5775859375
1766001323226667500,3.26266748046875,0.4641045033931732,-0.5642099976539612,0.4994583129882812,1.596366455078125
1766001323245448400,3.281448486328125,0.3454440236091614,0.1008690446615219,0.9530254006385804,1.6151474609374998
1766001323264229000,3.30022900390625,0.5337430834770203,0.7792344093322754,1.1335359811782837,1.6339279785156247
1766001323283010000,3.319010009765625,0.8083268404006958,1.2138646841049194,1.152472734451294,1.6527089843750005
1766001323301790700,3.337790771484375,0.8915571570396423,1.4589741230010986,1.184390425682068,1.6714897460937503
1766001323320571600,3.356571533203125,1.0331250429153442,1.6280310153961182,1.2092832326889038,1.6902705078125002
1766001323339352300,3.375352294921875,1.287855625152588,1.7561599016189575,1.1895828247070312,1.70905126953125
1766001323358133200,3.39413330078125,1.4553853273391724,1.7912845611572266,1.1003965139389038,1.727832275390625
1766001323376914000,3.412913818359375,1.5205951929092407,1.8308380842208865,0.9082795977592468,1.7466127929687498
1766001323395694600,3.431694580078125,1.569158911705017,1.9033782482147217,0.7434988021850586,1.7653935546874997
1766001323414475500,3.4504755859375,1.590997338294983,1.8464151620864868,0.5785652995109558,1.7841745605468746
1766001323433256200,3.469256103515625,1.4471386671066284,1.481881618499756,0.3389535844326019,1.8029550781250003
1766001323452037000,3.488037109375,1.1294889450073242,1.128801703453064,-0.0209984760731458,1.8217360839843753
1766001323470817800,3.50681787109375,0.7310523986816406,0.7656426429748535,-0.414700835943222,1.8405168457031251
1766001323489598700,3.5255986328125,0.319329559803009,0.4026362597942352,-0.7088322043418884,1.859297607421875
1766001323508379400,3.54437939453125,-0.0073303775861859,0.0132099511101841,-0.9365320801734924,1.8780783691406249
1766001323527160300,3.563160400390625,-0.5526798963546753,-0.3730092942714691,-1.2833505868911743,1.8968593749999998
1766001323545941000,3.58194091796875,-1.4662281274795532,-0.73204505443573,-1.7853286266326904,1.9156398925781246
1766001323564721700,3.6007216796875,-2.0604469776153564,-1.1995093822479248,-2.022038698196411,1.9344206542968754
1766001323583502600,3.619502685546875,-2.0068435668945312,-1.3998730182647705,-1.4084250926971436,1.9532016601562503
1766001323602283300,3.638283203125,-0.5737547278404236,-1.699196696281433,0.080252356827259,1.9719821777343751
1766001323621064200,3.657064208984375,0.0525343716144561,-0.5461894869804382,-0.7143300175666809,1.99076318359375
