time,seconds_elapsed,z,y,x,t
1765999780648861700,24.90186181640625,-0.9716744422912598,0.1610631942749023,-3.724033832550049,19.464254150390623
1765999780677030100,24.93003002929688,-0.1405661106109619,-0.2944154739379883,0.2372519969940185,19.492422363281253
1765999780695809000,24.94880908203125,2.0400400161743164,-0.8882150650024414,2.055168867111206,19.511201416015624
1765999780714588000,24.967587890625,2.880166530609131,-0.3943634033203125,2.0948972702026367,19.529980224609375
1765999780733366800,24.98636669921875,2.4947938919067383,0.1185646057128906,2.935922622680664,19.548759033203122
1765999780752145700,25.00514575195313,1.388273000717163,0.1179924011230468,3.021700620651245,19.567538085937503
1765999780770924500,25.023924560546877,0.7543882131576538,0.1692943572998047,2.4494001865386963,19.58631689453125
1765999780789703400,25.042703369140625,1.1717147827148438,0.3938980102539062,0.843379557132721,19.605095703125
1765999780808482300,25.061482421875,1.947587251663208,0.7955989837646484,-0.4557170867919922,19.623874755859372
1765999780827261200,25.08026123046875,2.4758942127227783,0.7913522720336914,-1.1009137630462646,19.642653564453123
1765999780846040000,25.0990400390625,2.8071179389953613,0.3532953262329101,-0.6804310083389282,19.661432373046875
1765999780874208300,25.127208251953125,3.164294719696045,0.0075035095214843,0.8309192061424255,19.689600585937498
1765999780892987400,25.1459873046875,3.433200597763061,0.0527029037475585,1.214789628982544,19.708379638671875
1765999780911766300,25.164766357421875,4.4820427894592285,0.1769218444824218,0.1970036029815673,19.72715869140625
1765999780930545200,25.183545166015627,6.458392143249512,0.3078460693359375,-1.43100905418396,19.7459375
1765999780949324000,25.20232397460937,8.346052169799805,0.6688871383666992,-2.6257572174072266,19.764716308593744
1765999780968103000,25.22110302734375,8.442299842834473,2.087797164916992,-3.9667158126831055,19.783495361328125
1765999780986881800,25.2398818359375,6.3795166015625,4.283938407897949,-6.845681667327881,19.802274169921873
1765999781005660700,25.25866064453125,4.915787696838379,5.092704772949219,-5.927265644073486,19.821052978515624
1765999781024439600,25.277439453125,0.1553354263305664,5.428788185119629,-4.324662685394287,19.839831787109375
1765999781043218400,25.296218505859372,-3.483937263488769,5.081179618835449,-3.140350818634033,19.858610839843745
1765999781061997300,25.314997314453127,-4.813939094543457,2.6291704177856445,-0.7644923329353333,19.8773896484375
1765999781080776200,25.333776123046874,-5.311616897583008,-0.2856063842773437,1.6020989418029783,19.896168457031248
1765999781099555000,25.35255517578125,-6.85399341583252,-0.0924205780029296,2.17322039604187,19.914947509765625
1765999781127723300,25.38072314453125,-2.219432830810547,-1.691476345062256,4.912398338317871,19.943115478515622
1765999781146502100,25.399502197265623,-2.229458332061768,-2.4303979873657227,4.517999172210693,19.961894531249996
1765999781165281000,25.41828100585937,-2.1014208793640137,-1.2741765975952148,0.2145169973373413,19.980673339843744
1765999781184060000,25.437059814453125,-3.5030441284179688,-2.241448402404785,-2.337607383728028,19.9994521484375
1765999781202838800,25.4558388671875,0.8718291521072388,-8.800472259521484,-3.807826280593872,20.018231201171872
1765999781221617700,25.47461767578125,-3.675244092941284,-0.7901430130004883,-5.790480613708496,20.037010009765623
1765999781240396500,25.493396484375,-2.0062296390533447,2.174351692199707,-0.0430049896240234,20.055788818359375
1765999781259175400,25.51217553710937,-2.174776077270508,-2.393239021301269,2.145503282546997,20.074567871093745
1765999781277954300,25.53095434570313,-0.5962224006652832,-1.6997394561767578,-4.054172992706299,20.093346679687503
1765999781296733200,25.549733154296877,-0.221210241317749,-0.7570705413818359,-2.760801076889038,20.11212548828125
1765999781315512000,25.568511962890625,-1.3356431722640991,-2.115097522735596,-0.7387920618057251,20.130904296875
1765999781343680500,25.596680419921874,-1.6895451545715332,-1.9037885665893557,-0.956773281097412,20.159072753906248
1765999781362459400,25.61545947265625,-1.641707420349121,-2.244476795196533,0.1880481243133545,20.177851806640625
1765999781381238300,25.63423828125,-2.0340559482574463,-3.1218323707580566,0.7841706275939941,20.196630615234373
1765999781400017200,25.65301708984375,-2.1774494647979736,-3.5331249237060547,0.3068975210189819,20.215409423828124
1765999781418796000,25.671796142578124,-2.147275924682617,-3.524342536926269,-0.685268759727478,20.234188476562498
1765999781437575000,25.690574951171875,-2.1293795108795166,-3.469822883605957,-1.2131391763687134,20.25296728515625
1765999781456353800,25.709353759765627,-2.0611016750335693,-3.184117794036865,-1.3258252143859863,20.27174609375
1765999781475132700,25.72813256835937,-2.0503134727478027,-2.651685237884521,-1.6261723041534424,20.290524902343744
1765999781493911600,25.74691162109375,-2.0617597103118896,-2.3311867713928223,-1.774160861968994,20.309303955078125
1765999781512690400,25.7656904296875,-2.2291789054870605,-2.445556163787842,-1.31196928024292,20.328082763671873
1765999781531469300,25.78446923828125,-2.626927375793457,-2.4606966972351074,-0.711552619934082,20.346861572265624
1765999781559637500,25.812637451171877,-2.638756275177002,-1.8087234497070312,-0.5223239064216614,20.37502978515625
1765999781578416400,25.83141650390625,-2.0010733604431152,-1.0830154418945312,0.0241619497537612,20.393808837890624
1765999781597195300,25.8501953125,-1.8273301124572756,-0.97428560256958,0.910716474056244,20.412587646484372
1765999781615974100,25.86897412109375,-2.308964729309082,-1.4003348350524902,1.6799654960632324,20.431366455078123
1765999781634753000,25.8877529296875,-2.722501754760742,0.0216255187988281,1.9142711162567136,20.450145263671875
1765999781653532000,25.906531982421875,-1.9257316589355469,3.63979434967041,1.69203782081604,20.468924316406248
1765999781672310800,25.925310791015622,-0.7365164756774902,6.099821090698242,2.2061262130737305,20.487703124999996
1765999781691089700,25.944089599609374,2.4311087131500244,6.794123649597168,-2.032874584197998,20.506481933593747
1765999781709868500,25.96286865234375,3.817862987518311,7.514572143554687,-6.5137715339660645,20.525260986328124
1765999781728647400,25.9816474609375,3.6922101974487305,5.092404365539551,-8.112881660461426,20.544039794921872
1765999781747426300,26.00042626953125,1.2391648292541504,2.3265857696533203,-6.484473705291748,20.562818603515623
1765999781766205200,26.019205078125,-0.9605038166046144,1.1792316436767578,-3.080864906311035,20.581597412109375
1765999781794373600,26.04737353515625,1.3608639240264893,-0.8425521850585938,0.6722346544265747,20.609765869140624
1765999781813152500,26.066152587890624,1.6145617961883545,-1.2131261825561523,1.0309154987335205,20.628544921874997
1765999781831931400,26.08493139648437,1.2389492988586426,-1.2394990921020508,1.7172226905822754,20.647323730468745
1765999781850710300,26.103710205078126,0.3202269077301025,-1.0785951614379885,3.378867149353028,20.6661025390625
1765999781869489200,26.1224892578125,-0.3340804576873779,-0.8818778991699219,4.180881023406982,20.684881591796874
1765999781888268000,26.14126806640625,0.0433540344238281,-0.4088268280029297,3.2272253036499023,20.703660400390625
1765999781907047000,26.160046875,1.1727144718170166,0.3180990219116211,1.0095250606536863,20.722439208984373
1765999781925825800,26.17882568359375,1.9764623641967771,1.1005582809448242,-0.0350681543350219,20.741218017578124
1765999781944604700,26.197604736328124,2.070586681365967,1.2507305145263672,-0.1441960930824279,20.759997070312497
1765999781963383600,26.216383544921875,1.819047212600708,0.7818441390991211,0.3342037200927734,20.77877587890625
1765999781982162400,26.235162353515623,2.002962827682495,0.1579065322875976,0.6307055354118347,20.797554687499996
1765999782000941300,26.25394140625,2.346874952316284,-0.2209300994873047,0.448086142539978,20.816333740234374
1765999782019720200,26.27272021484375,2.6011412143707275,0.0932350158691406,0.1415637731552124,20.835112548828125
1765999782038499000,26.2914990234375,2.742183923721313,0.4007196426391601,-0.2715034484863281,20.853891357421872
1765999782057278000,26.31027783203125,2.5026121139526367,0.464996337890625,-0.8050522804260254,20.872670166015624
1765999782076056800,26.329056884765624,2.8746416568756104,0.4124927520751953,-1.2089579105377195,20.891449218749997
1765999782094835700,26.34783569335937,4.236692428588867,0.2136783599853515,-1.213719129562378,20.910228027343745
1765999782113614600,26.366614501953126,5.571307182312012,1.342402458190918,-2.494027853012085,20.9290068359375
1765999782132393500,26.3853935546875,6.03797721862793,3.2900123596191406,-4.257523536682129,20.947785888671874
1765999782151172600,26.404172607421877,4.44648551940918,4.229355812072754,-3.5960915088653564,20.96656494140625
1765999782169951200,26.422951171875,1.7933681011199951,4.464227676391602,-2.441729784011841,20.985343505859372
1765999782198119700,26.45111962890625,-2.882709503173828,3.11917781829834,-1.2848798036575315,21.01351196289062
1765999782216898600,26.469898681640625,-3.5839219093322754,0.6733818054199219,0.4629818797111511,21.032291015625
1765999782235677400,26.488677490234377,-3.181709289550781,-1.4581952095031738,1.7146015167236328,21.05106982421875
1765999782254456300,26.507456298828124,-1.4034018516540527,-1.615949630737305,3.5110926628112797,21.069848632812498
1765999782273235200,26.52623510742188,-0.7128567695617676,-0.5811529159545898,5.863058567047119,21.088627441406253
1765999782292014000,26.54501416015625,0.0514612197875976,-0.335392951965332,6.593055248260498,21.107406494140623
1765999782310793000,26.56379296875,1.0434067249298096,0.1008176803588867,6.409290790557861,21.126185302734374
1765999782329571800,26.58257177734375,1.591353416442871,2.2107133865356445,4.562771797180176,21.144964111328125
1765999782348350700,26.601350830078125,0.0011713504791259,4.938383102416992,0.0626513957977294,21.1637431640625
1765999782367129600,26.62012963867188,-2.44643497467041,5.630592346191406,-5.066844940185547,21.182521972656254
1765999782385908500,26.638908447265624,-1.7894237041473389,4.895591735839844,-8.543283462524414,21.201300781249998
1765999782404687400,26.657687255859376,-1.3914549350738523,2.7428884506225586,-7.761998176574707,21.22007958984375
1765999782423466200,26.67646630859375,-1.9794920682907104,0.6063938140869141,-6.5398359298706055,21.238858642578123
1765999782442245000,26.6952451171875,-6.070126056671143,-5.367105007171631,-1.9639194011688232,21.257637451171874
1765999782461024000,26.71402392578125,-4.396377086639404,-6.466030597686768,-3.664431095123291,21.276416259765625
1765999782479803000,26.732802978515625,-4.58723783493042,3.09136962890625,-1.1719882488250732,21.2951953125
1765999782498581800,26.751581787109377,-2.4544832706451416,-1.700697898864746,6.686854362487793,21.31397412109375
1765999782517360600,26.770360595703124,-2.156550407409668,-7.300481796264648,5.223296165466309,21.332752929687498
1765999782536139500,26.78913940429688,-1.331022024154663,-3.792168617248535,-0.7249870300292969,21.351531738281253
1765999782554918400,26.80791845703125,-1.8770227432250977,-1.788039207458496,0.9972000122070312,21.370310791015623
1765999782573697300,26.826697265625,-3.2162225246429443,-3.002890586853028,1.952299118041992,21.389089599609374
1765999782592476400,26.84547631835937,-3.505194187164306,-3.341543674468994,-0.3630251884460449,21.407868652343744
1765999782611255000,26.864255126953125,-2.995234489440918,-2.4036364555358887,-2.3046395778656006,21.4266474609375
1765999782630034200,26.8830341796875,-2.92008113861084,-2.197866439819336,-3.22642183303833,21.445426513671872
1765999782648812800,26.901812744140624,-3.911075592041016,-2.479957103729248,-3.2548203468322754,21.464205078124998
1765999782667592000,26.920592041015624,-3.71398401260376,-2.325998306274414,-2.4137063026428223,21.482984374999997
1765999782686370600,26.93937060546875,-3.1251018047332764,-1.6617050170898438,-1.6384819746017456,21.501762939453123
1765999782705149700,26.958149658203126,-2.5380337238311768,-0.8157873153686523,-1.534903883934021,21.5205419921875
