time,seconds_elapsed,z,y,x,t
1765999787852914700,32.10591479492187,1.2472331523895264,-1.257541537284851,-0.0377972573041915,26.6190126953125
1765999787871693600,32.124693603515624,1.3466514348983765,-1.754785418510437,-0.5843685269355774,26.637791503906254
1765999787890472400,32.143472412109375,1.159574031829834,-1.9148319959640503,-1.2860994338989258,26.656570312500005
1765999787909251300,32.162251220703126,1.028085470199585,-2.1260385513305664,-1.8370994329452517,26.675349121093756
1765999787928030500,32.18103051757812,1.0677915811538696,-2.2738678455352783,-2.225762128829956,26.694128417968752
1765999787946809300,32.199809326171874,1.11345374584198,-2.4009275436401367,-2.5316526889801025,26.712907226562503
1765999787965588200,32.218588134765625,1.0961968898773191,-2.446131706237793,-2.6910884380340576,26.731686035156255
1765999787984367000,32.2373671875,0.9379828572273254,-2.575329542160034,-1.9947025775909424,26.75046508789063
1765999788003146000,32.25614599609375,0.0287106446921825,-1.404454469680786,-0.8936188220977783,26.76924389648438
1765999788021924900,32.2749248046875,-0.3740019500255584,1.4076615571975708,-1.5032618045806885,26.78802270507813
1765999788040703700,32.293703857421875,0.370031327009201,1.3711624145507812,-1.5243366956710815,26.806801757812504
1765999788059482600,32.312482666015626,0.6556106209754944,1.470122456550598,-1.5455642938613892,26.825580566406256
1765999788078261500,32.33126147460938,0.2061668634414672,1.239521026611328,-1.3957496881484983,26.844359375000007
1765999788097040400,32.35004028320313,0.212733656167984,0.0454330667853355,-1.208366870880127,26.863138183593758
1765999788115819300,32.3688193359375,0.3150535225868225,-0.5116755962371826,-1.0394628047943115,26.881917236328132
1765999788134598400,32.38759838867188,0.1820377111434936,-0.2276234924793243,-0.8856775760650635,26.900696289062513
1765999788153377300,32.40637719726563,0.0638353675603866,0.2641226649284363,-0.6372083425521851,26.919475097656257
1765999788172156200,32.42515625,-0.0403170771896839,0.6425533890724182,-0.3572795391082763,26.93825415039063
1765999788190935000,32.44393505859375,-0.1986837685108184,0.8673516511917114,-0.0904843434691429,26.95703295898438
1765999788209714000,32.4627138671875,-0.2838993966579437,1.001741886138916,0.2004400044679641,26.975811767578133
1765999788228492800,32.48149291992188,-0.2683223485946655,1.025718331336975,0.4980838596820831,26.994590820312506
1765999788247271700,32.50027172851563,-0.2623664140701294,0.9912044405937196,0.7769436240196228,27.013369628906258
1765999788266050600,32.51905053710937,-0.2654207348823547,0.9391282200813292,1.0189988613128662,27.032148437500002
1765999788284829400,32.53782934570312,-0.2423606067895889,0.9415717124938964,1.2318851947784424,27.050927246093753
1765999788303608300,32.5566083984375,-0.2280052751302719,1.0006728172302246,1.430416226387024,27.069706298828127
1765999788322387200,32.57538720703125,-0.2197585999965667,1.0244965553283691,1.580383539199829,27.088485107421878
1765999788341166000,32.594166015625,-0.1860083192586898,0.9820414781570436,1.6811761856079102,27.10726391601563
1765999788359945200,32.6129453125,-0.1499672979116439,0.8384882807731628,1.72851824760437,27.126043212890632
1765999788378724000,32.63172412109375,-0.1204930767416954,0.6272817850112915,1.7373757362365725,27.144822021484377
1765999788397503000,32.6505029296875,-0.1209512278437614,0.427528977394104,1.7201188802719116,27.163600830078128
1765999788416281900,32.66928173828125,-0.1371391415596008,0.2485456019639969,1.7062216997146606,27.18237963867188
1765999788435060700,32.68806079101562,-0.1922696828842163,0.2393826395273208,1.6546036005020142,27.201158691406253
1765999788453839600,32.706839599609374,-0.2365573793649673,0.3604865670204162,1.514410138130188,27.219937500000004
1765999788472618500,32.725618408203125,-0.2443459182977676,0.4582249522209167,1.3728421926498413,27.238716308593755
1765999788491397400,32.7443974609375,-0.2464839369058609,0.4527271687984466,1.263039231300354,27.25749536132813
1765999788510176300,32.76317626953125,-0.2359465211629867,0.2593884468078613,1.1657590866088867,27.27627416992188
1765999788528955100,32.781955078125,-0.1797469556331634,0.0162642747163772,1.0748928785324097,27.29505297851563
1765999788547734300,32.800734375,-0.1229365393519401,-0.0967457070946693,0.9945642352104188,27.313832275390627
1765999788566513000,32.819512939453126,-0.144011378288269,-0.0060322894714772,0.8565087914466858,27.332610839843756
1765999788585292000,32.8382919921875,-0.3924806118011474,0.5545888543128967,0.4727329909801483,27.35138989257813
1765999788604071000,32.85707080078125,-0.7626646757125854,1.4527127742767334,-0.29374960064888,27.37016870117188
1765999788622849800,32.875849853515625,-1.3138173818588257,2.432539939880371,-1.2352449893951416,27.388947753906255
1765999788641628700,32.894628662109376,-1.351232886314392,2.283946990966797,-1.5177699327468872,27.407726562500006
1765999788660407600,32.91340747070313,-0.1417206227779388,1.3193916082382202,-1.2978585958480835,27.426505371093757
1765999788679186400,32.9321865234375,0.2904661893844604,-0.2668715417385101,-0.9649372696876526,27.44528442382813
1765999788697965300,32.95096533203125,0.1101083755493164,-1.4198788404464722,-0.4386772811412811,27.464063232421882
1765999788716744200,32.969744140625,0.127823457121849,-1.7804417610168457,-0.3525453209877014,27.482842041015626
1765999788735523300,32.9885234375,0.2477056682109832,-1.3132829666137695,-0.3041343092918396,27.50162133789063
1765999788754302200,33.00730224609375,0.4372264742851257,-0.8855248689651489,-0.1734092384576797,27.52040014648438
1765999788773081000,33.0260810546875,0.6690496206283569,-0.747469425201416,-0.0567340664565563,27.539178955078132
1765999788791860000,33.04485986328125,0.8097012639045715,-0.7395281791687012,0.0727692693471908,27.557957763671883
1765999788810638800,33.06363891601563,0.8035926222801208,-0.8989638686180115,0.2566395699977875,27.576736816406257
1765999788829417700,33.08241772460938,0.7507528066635132,-1.166980862617493,0.4484511017799377,27.595515625000008
1765999788848196600,33.10119653320312,0.7667880058288574,-1.2634974718093872,0.6718748807907104,27.614294433593752
1765999788866975500,33.1199755859375,0.695164144039154,-0.9757801294326782,0.9469167590141296,27.633073486328133
1765999788885754400,33.13875439453125,0.537255585193634,-0.5930733680725098,1.186223030090332,27.651852294921877
1765999788904533500,33.15753344726563,0.3052796721458435,-0.1222493126988411,1.3016765117645264,27.670631347656258
1765999788923312400,33.1763125,0.0233655776828527,0.4542543292045593,1.0903172492980957,27.68941040039063
1765999788942091300,33.19509130859375,-0.264046311378479,0.5144245028495789,0.6468294262886047,27.708189208984383
1765999788960870100,33.2138701171875,-0.7247910499572754,0.032604906708002,-0.022220205515623,27.726968017578127
1765999788979649000,33.23264892578125,-1.2486076354980469,-1.099327564239502,-0.9956332445144652,27.745746826171878
1765999788998428000,33.25142797851562,-1.8251112699508667,-2.615341186523437,-1.9076544046401975,27.76452587890625
1765999789017206800,33.27020678710937,-2.185215950012207,-3.751244306564331,-2.64924430847168,27.783304687500003
1765999789035985700,33.288985595703124,-1.9486587047576904,-4.0235371589660645,-3.362123489379883,27.802083496093754
1765999789054764500,33.3077646484375,-0.9841031432151794,-2.987968683242798,-3.9598546028137207,27.820862548828128
1765999789073543400,33.32654345703125,0.0829248949885368,-1.974391341209412,-3.695808172225952,27.83964135742188
1765999789092322600,33.34532250976562,0.2515235841274261,-1.0793217420578003,-2.006919860839844,27.858420410156253
1765999789111101400,33.364101318359374,0.887891948223114,0.628045380115509,-2.8514404296875,27.877199218750004
1765999789129880300,33.38288037109375,2.3371686935424805,-0.4043161273002624,-2.4759113788604736,27.895978271484378
1765999789148659200,33.4016591796875,1.8063271045684812,-1.5683189630508425,-1.7812052965164185,27.91475708007813
1765999789167438000,33.42043798828125,1.1563670635223389,-2.1061854362487797,-1.114599108695984,27.93353588867188
1765999789186217000,33.439217041015624,1.0331250429153442,-0.6917279958724976,-0.4588358104228973,27.952314941406254
1765999789204995800,33.457995849609375,0.7631227970123291,1.2563197612762451,0.1216384470462799,27.971093750000005
1765999789223774700,33.47677465820313,0.454177975654602,2.448575019836426,0.6718748807907104,27.989872558593756
1765999789242553600,33.4955537109375,0.3364337682723999,2.521115303039551,1.1733949184417725,28.00865161132813
1765999789261332500,33.51433251953125,0.388662725687027,1.985081434249878,1.5506038665771484,28.02743041992188
1765999789280111600,33.533111572265625,0.4483747482299804,1.3096177577972412,1.8427499532699585,28.046209472656255
1765999789298890500,33.551890380859376,0.4105011224746704,0.9084323048591614,2.07442045211792,28.064988281250006
1765999789317669400,33.57066943359375,0.2929096519947052,0.9563851952552797,2.2179737091064453,28.08376733398438
1765999789336448300,33.5894482421875,0.155465081334114,1.1978294849395752,2.2523348331451416,28.10254614257813
1765999789355227100,33.60822705078125,-0.0183259434998035,1.362152099609375,2.2097270488739014,28.121324951171882
1765999789374006000,33.627006103515626,-0.1563813835382461,1.2412009239196775,2.115195751190185,28.140104003906256
1765999789392785000,33.64578491210938,-0.2383899837732315,1.0003674030303955,1.9316308498382568,28.158882812500007
1765999789411563800,33.66456372070313,-0.2915352284908294,0.6979893445968628,1.6785800457000732,28.17766162109376
1765999789430342700,33.6833427734375,-0.3628536760807037,0.34903284907341,1.4062870740890503,28.196440673828132
1765999789449121800,33.70212182617188,-0.4372264742851257,0.0168751403689384,1.1456005573272705,28.215219726562513
1765999789467900700,33.72090063476563,-0.5317577719688416,-0.1301905512809753,0.8830813765525818,28.233998535156257
1765999789486679600,33.73967944335938,-0.605519711971283,0.2564868628978729,0.5550470352172852,28.252777343750008
1765999789505458400,33.75845849609375,-0.9607375860214232,2.1985785961151123,-0.9818887710571288,28.27155639648438
1765999789524237300,33.7772373046875,-0.901483714580536,2.418184518814087,-1.13307785987854,28.290335205078133
1765999789543016200,33.79601611328125,-0.2006690800189972,2.0124175548553467,-1.1002438068389893,28.309114013671877
1765999789561795000,33.81479516601563,0.1884517818689346,0.7033344507217407,-1.0202205181121826,28.327893066406258
1765999789580574000,33.83357397460937,0.4367683231830597,-0.5281689763069153,-0.3849211633205414,28.346671875000002
1765999789599353000,33.85235302734375,0.3605629503726959,-1.3957496881484983,-0.0886517539620399,28.365450927734383
1765999789618132000,33.87113208007813,0.2973384261131286,-1.5053999423980713,-0.0562759190797805,28.384229980468756
1765999789636910800,33.88991088867188,0.2582430839538574,-1.2436443567276,-0.1347720474004745,28.403008789062508
1765999789655689700,33.90868969726562,0.2861901521682739,-0.8430697321891785,-0.2636645138263702,28.42178759765625
1765999789674468600,33.92746850585937,0.264504462480545,-0.2880991101264953,-0.3282634615898132,28.440566406250003
1765999789693247500,33.94624755859375,0.0965166315436363,0.3036761581897735,-0.3058141767978668,28.459345458984377
1765999789712026400,33.9650263671875,-0.0792597085237503,0.7262418866157532,-0.252210795879364,28.478124267578128
1765999789730805200,33.98380517578125,-0.1498145908117294,0.7441096305847168,-0.1915824711322784,28.49690307617188
1765999789749584400,34.00258447265625,-0.1137735620141029,0.3580431044101715,-0.1602756530046463,28.515682373046882
1765999789768363300,34.02136328125,-0.0745255053043365,-0.1569158881902694,-0.143782302737236,28.534461181640626
1765999789787142100,34.04014208984375,-0.0204639695584774,-0.5139663815498352,-0.1358410567045211,28.553239990234378
1765999789805921000,34.05892114257812,0.0076358099468052,-0.6139954328536987,-0.1314122825860977,28.57201904296875
1765999789824700000,34.07769995117187,-0.0117591470479965,-0.5907825827598572,-0.1446985900402069,28.590797851562503
1765999789843478800,34.096478759765624,-0.0349720083177089,-0.5138136148452759,-0.1651625633239746,28.609576660156254
