time,seconds_elapsed,z,y,x,t
1765999790848150500,35.101150634765624,0.0412333719432354,1.8447352647781368,-1.1190279722213743,29.614248535156253
1765999790866929400,35.119929443359375,0.291687935590744,-0.0816268026828765,-1.075656533241272,29.633027343750005
1765999790885708300,35.138708251953126,0.0227547138929367,-1.3920844793319702,-0.7204386591911316,29.651806152343756
1765999790904487200,35.15748706054688,-0.2034179717302322,-1.2537236213684082,-0.4182133078575134,29.670584960937507
1765999790923266000,35.17626611328125,-0.1337793916463852,-0.6550761461257935,-0.3852266073226928,29.68936401367188
1765999790942045000,35.195044921875,0.075899951159954,-0.3601811528205871,-0.3371210098266601,29.708142822265632
1765999790960824000,35.213823974609376,0.1838703006505966,-0.4333322048187256,-0.3594175577163696,29.726921875000006
1765999790979603000,35.23260302734375,0.1459966748952865,-0.6940187215805054,-0.4371501207351684,29.74570092773438
1765999790998381800,35.2513818359375,0.0474947355687618,-0.7555633783340454,-0.4686096310615539,29.76447973632813
1765999791017160700,35.27016064453125,-0.0872009471058845,-0.4205040335655212,-0.4353175163269043,29.783258544921882
1765999791035939600,35.288939697265626,-0.1568395346403122,0.0640644431114196,-0.3563632369041443,29.802037597656255
1765999791054718500,35.30771850585938,-0.1742491722106933,0.3245982825756073,-0.275270938873291,29.820816406250007
1765999791073497300,35.32649731445313,-0.173485592007637,0.2722166180610657,-0.2169333547353744,29.839595214843758
1765999791092276200,35.34527612304687,-0.0897971242666244,0.0093920463696122,-0.1915824711322784,29.858374023437502
1765999791111055400,35.36405541992188,0.1076649203896522,-0.4731911420822143,-0.1372154951095581,29.877153320312512
1765999791129834200,35.38283422851563,0.4941896200180053,-0.9072105288505554,-0.0454330667853355,29.895932128906257
1765999791148613000,35.40161303710938,0.6545416116714478,-1.2460877895355225,0.0211511924862861,29.914710937500008
1765999791167392000,35.42039208984375,0.7232639193534851,-1.4444661140441897,0.1311068534851074,29.93348999023438
1765999791186171000,35.4391708984375,0.9825760126113892,-1.662544846534729,0.3948477208614349,29.952268798828133
1765999791204949800,35.45794970703125,0.8909462690353394,-1.5374703407287598,0.7926734089851379,29.971047607421877
1765999791223729000,35.47672900390625,0.5137372612953186,-1.2115739583969116,1.222874879837036,29.98982690429688
1765999791242507800,35.4955078125,0.2370155304670334,-0.6937133073806763,1.5840487480163574,30.00860571289063
1765999791261286700,35.51428662109375,0.0879645273089408,-0.1052978187799453,1.7786091566085815,30.027384521484382
1765999791280065500,35.5330654296875,0.1111773923039436,0.104534238576889,2.1761293411254883,30.046163330078127
1765999791298844400,35.55184448242188,0.0997236743569374,-0.1943313628435135,2.3218207359313965,30.064942382812507
1765999791317623300,35.57062329101562,-0.0757472291588783,-0.5626828074455261,1.9800418615341189,30.08372119140625
1765999791336402200,35.58940209960937,-0.4097375571727752,-1.0281617641448977,1.3671917915344238,30.102500000000003
1765999791355181300,35.608181396484376,-0.9534072279930116,-1.60069477558136,0.7300597429275513,30.121279296875006
1765999791373960200,35.62696020507813,-1.3090832233428955,-2.0425026416778564,0.2502254843711853,30.140058105468757
1765999791392739000,35.64573901367187,-1.330921649932861,-1.958814263343811,-0.256792277097702,30.1588369140625
1765999791411518000,35.66451806640625,-1.1843141317367554,-1.6170353889465332,-1.059163212776184,30.177615966796882
1765999791430296800,35.683296875,-0.8425352573394775,-1.1845431327819824,-1.996840596199036,30.196394775390633
1765999791449075700,35.70207568359375,-0.4520399272441864,-0.7880918979644775,-2.871140718460083,30.215173583984377
1765999791467854600,35.7208544921875,-0.0099265528842806,-0.6755400896072388,-3.597611665725708,30.23395239257813
1765999791486633500,35.73963354492187,0.5320632457733154,-1.0196096897125244,-4.13670015335083,30.252731445312502
1765999791505412400,35.758412353515624,0.9694424271583556,-1.45057475566864,-4.403189659118652,30.271510253906253
1765999791524191200,35.777191162109375,1.014493703842163,-2.3421318531036377,-3.2911102771759038,30.290289062500005
1765999791542970400,35.79597045898438,1.0945169925689695,-3.35693097114563,-2.6104543209075928,30.309068359375008
1765999791561749200,35.81474926757812,0.4002691507339477,-1.1046725511550903,-1.840459227561951,30.327847167968752
1765999791580528000,35.83352807617187,-0.1824958473443985,1.0426697731018066,-1.3638319969177246,30.346625976562503
1765999791599307000,35.85230712890625,-0.7141009569168091,3.490710496902466,-0.5232820510864258,30.365405029296877
1765999791618086000,35.8710859375,-1.213940978050232,5.716548919677734,-0.0264962594956159,30.384183837890628
1765999791636864800,35.88986474609375,-1.1905754804611206,4.175260901451111,0.3064250349998474,30.40296264648438
1765999791655643600,35.9086435546875,-0.6896663308143616,4.859811305999756,0.561766505241394,30.42174145507813
1765999791674422500,35.927422607421875,-0.2296851575374603,2.790048599243164,0.8012255430221558,30.440520507812504
1765999791693201700,35.94620166015625,0.1171333193778991,1.2092832326889038,1.0240384340286257,30.459299560546878
1765999791711980500,35.96498046875,0.3420842885971069,0.6784417033195496,1.1831687688827517,30.47807836914063
1765999791730759400,35.98375952148437,0.4451677203178406,0.7864120602607727,1.3019819259643557,30.496857421875003
1765999791749538300,36.002538330078124,0.5296197533607483,1.1142936944961548,1.3881138563156128,30.515636230468754
1765999791768317200,36.02131713867188,0.6068941354751587,1.4962369203567505,1.4624866247177124,30.534415039062512
1765999791787096000,36.04009594726563,0.6640099883079529,1.7247003316879272,1.468289852142334,30.553193847656257
1765999791805875000,36.058875,0.771064043045044,1.742415428161621,1.3238203525543213,30.57197290039063
1765999791824654000,36.07765405273437,0.5082395076751709,1.9852341413497925,0.0839175507426261,30.590751953124997
1765999791843433000,36.096432861328125,-0.1009454056620597,0.7401390671730042,-0.7462477087974548,30.609530761718755
1765999791862211800,36.1152119140625,0.7177661061286926,0.0239000841975212,-0.3137554228305816,30.62830981445313
1765999791880990700,36.13399072265625,1.215773582458496,-0.5794816017150879,-0.2642753720283508,30.64708862304688
1765999791899769600,36.15276953125,1.0905463695526123,-0.6701950430870056,-0.1077412739396095,30.66586743164063
1765999791918548500,36.171548583984375,0.9447023868560792,-0.5568795800209045,0.058719377964735,30.684646484375005
1765999791937327400,36.190327392578126,0.7211259007453918,-0.3235292732715606,0.1306487023830413,30.703425292968756
1765999791956106200,36.20910620117188,0.6575959324836731,-0.2642753720283508,0.0958294123411178,30.722204101562507
1765999791974885400,36.22788549804688,0.623845636844635,-0.1535561382770538,-0.0074067353270947,30.74098339843751
1765999791993664300,36.24666430664063,0.5129737257957458,0.2010508775711059,-0.0912479236721992,30.75976220703126
1765999792012443100,36.265443115234376,0.3599520623683929,0.6468294262886047,-0.1107956022024154,30.778541015625006
1765999792031222000,36.28422192382813,0.2499964088201522,0.9220240116119384,-0.0797942131757736,30.797319824218757
1765999792050001000,36.3030009765625,0.1398880332708358,0.9317978620529176,-0.0507781356573104,30.81609887695313
1765999792068779800,36.32177978515625,0.1266017258167266,0.677678108215332,-0.0397825688123703,30.834877685546882
1765999792096948200,36.3499482421875,0.1215620934963226,0.2413679510354995,-0.0310777463018894,30.86304614257813
1765999792115727000,36.36872705078125,0.0597120337188243,0.1002581790089607,-0.0400880016386508,30.881824951171883
1765999792134506000,36.387506103515626,0.0077885258942842,0.0069485870189964,-0.0736855641007423,30.900604003906256
1765999792153285000,36.40628515625,-0.037720900028944,-0.0707839578390121,-0.117667831480503,30.91938305664063
1765999792172064000,36.42506396484375,-0.0713184624910354,-0.1230128929018974,-0.1634826809167862,30.93816186523438
1765999792190843000,36.4438427734375,-0.1238528341054916,-0.1931096315383911,-0.2048687785863876,30.956940673828132
1765999792209621800,36.46262182617188,-0.1672242283821106,-0.2683987021446228,-0.2323576956987381,30.975719726562513
1765999792228400600,36.48140063476563,-0.2046397030353546,-0.308563083410263,-0.2409097999334335,30.994498535156257
1765999792247179500,36.50017944335937,-0.2327394783496856,-0.3418551981449127,-0.2496146261692047,31.01327734375
1765999792265958400,36.51895849609375,-0.2218966335058212,-0.4316523373126983,-0.252210795879364,31.032056396484382
1765999792284737300,36.5377373046875,-0.2064722925424575,-0.5909352898597717,-0.252210795879364,31.050835205078126
1765999792303516400,36.55651635742188,-0.2211330533027649,-0.7030289769172668,-0.251752644777298,31.069614257812507
1765999792322295300,36.57529541015625,-0.2174678593873977,-0.6917279958724976,-0.2286925017833709,31.08839331054688
1765999792341074200,36.59407421875,-0.208610326051712,-0.55672687292099,-0.1700494885444641,31.107172119140632
1765999792359853000,36.61285302734375,-0.2168570011854171,-0.358806699514389,-0.0804050788283348,31.125950927734383
1765999792378632000,36.6316318359375,-0.1962403059005737,-0.2282343506813049,-0.0019089524867013,31.144729736328127
1765999792397410800,36.65041088867188,-0.1553123742341995,-0.2039524763822555,0.0747545808553695,31.163508789062508
1765999792416190000,36.66918994140625,-0.1614210158586502,-0.2457967102527618,0.1211803033947944,31.18228784179688
1765999792434968800,36.68796875,-0.1930332630872726,-0.248087465763092,0.1512653976678848,31.201066650390633
1765999792453747700,36.70674780273438,-0.2194531708955764,-0.1278998106718063,0.1836412250995636,31.219845703125007
1765999792472526600,36.72552661132813,-0.2319758981466293,0.0486401095986366,0.2456440031528473,31.238624511718758
1765999792491305500,36.74430541992187,-0.1831067204475402,0.3077994883060455,0.3432296514511108,31.257403320312502
1765999792510084400,36.76308447265625,-0.0803287178277969,0.3299433290958404,0.4635699987411499,31.276182373046883
1765999792528863200,36.78186328125,0.0030543238390237,0.1784488707780838,0.5364156365394592,31.294961181640627
1765999792547642000,36.80064208984375,0.0725401937961578,-0.0507781356573104,0.5631409883499146,31.313739990234378
1765999792566421200,36.81942114257812,0.2015853822231292,-0.2161697745323181,0.5643627047538757,31.33251904296875
1765999792585200000,36.8382001953125,0.3543015718460083,-0.2841284871101379,0.5518399477005005,31.351298095703132
1765999792603979000,36.85697900390625,0.472198486328125,-0.4223366379737854,0.5364156365394592,31.370076904296877
1765999792622758000,36.8757578125,0.5430588126182556,-0.5154935121536255,0.5161044001579285,31.388855712890628
1765999792641536800,36.89453686523437,0.6235402226448059,-0.6219366788864136,0.4899899065494537,31.407634765625
1765999792660315600,36.91331567382812,0.7637336850166321,-0.7163153290748596,0.4626537263393402,31.426413574218753
1765999792679094500,36.932094482421874,0.9272927641868592,-0.9223294854164124,0.4388299882411957,31.445192382812504
1765999792697873700,36.95087377929688,1.0519092082977295,-1.1677443981170654,0.4040106832981109,31.463971679687507
1765999792716652500,36.96965258789062,1.1643083095550537,-1.4493530988693235,0.3317759335041046,31.48275048828125
1765999792735431400,36.98843139648437,1.195920467376709,-1.5997785329818726,0.1795178800821304,31.501529296875002
1765999792754210300,37.00721020507813,1.0798561573028564,-1.6355141401290894,-0.1575267612934112,31.52030810546876
1765999792772989200,37.0259892578125,0.8571959733963013,-1.4296526908874512,-0.6743183732032776,31.539087158203127
1765999792791768000,37.04476806640625,0.6033816933631897,-1.1068105697631836,-1.1982876062393188,31.55786596679688
1765999792810547000,37.063546875,0.3327685892581939,-0.775263786315918,-1.675220251083374,31.57664477539063
1765999792829325800,37.08232592773437,0.0661261156201362,-0.7317396402359009,-2.151083946228028,31.595423828124996
1765999792848105000,37.10110498046875,-0.1559232324361801,-1.040684461593628,-2.6150357723236084,31.614202880859377
