time,seconds_elapsed,z,y,x,t
1765999791841085400,36.09408544921875,1.2444956302642822,2.3824148178100586,-2.8627583980560303,30.656477783203126
1765999791859864300,36.1128642578125,5.825348854064941,5.242547035217285,-10.30774974822998,30.67525659179687
1765999791897422300,36.15042236328125,1.9932923316955569,5.453001976013184,-3.479285717010498,30.712814697265625
1765999791916201200,36.169201171875,-0.2122220993041992,3.160371780395508,-0.8548204898834229,30.731593505859376
1765999791934980000,36.18797998046875,-1.9304420948028564,0.0900564193725586,-0.205948144197464,30.75037231445312
1765999791953759000,36.20675903320313,-1.687558650970459,-2.2016677856445312,2.759105682373047,30.7691513671875
1765999791972537900,36.22553784179688,-0.7873497009277344,-3.1379337310791016,5.325052261352539,30.787930175781252
1765999791991316700,36.24431665039062,-0.2757232189178467,-1.8975591659545896,5.817293643951416,30.806708984374996
1765999792010095600,36.263095703125,-0.2879505157470703,0.5812311172485352,4.303965091705322,30.825488037109377
1765999792028874800,36.28187475585938,-0.0183396339416503,1.7575502395629885,2.2943367958068848,30.84426708984375
1765999792047653600,36.30065356445313,0.1556394100189209,1.394195556640625,0.5463218688964844,30.863045898437502
1765999792066432500,36.3194326171875,0.1533665657043457,0.7935628890991211,-0.5784246325492859,30.881824951171875
1765999792085211400,36.33821142578125,0.0404503345489501,0.5814571380615234,-0.3896604180335998,30.900603759765627
1765999792103990300,36.356990234375,-0.0662734508514404,0.2179279327392578,0.3407413959503174,30.91938256835937
1765999792122769200,36.37576904296875,-0.4971749782562256,-0.0566282272338867,0.9990079402923584,30.938161376953122
1765999792141548300,36.39454833984375,-0.993661642074585,-0.1420278549194336,1.2060391902923584,30.956940673828125
1765999792160327200,36.4133271484375,-1.2708780765533447,-0.2922935485839844,1.012017011642456,30.975719482421876
1765999792179106000,36.43210595703125,-0.8118443489074707,-0.3709726333618164,0.9607483148574828,30.99449829101562
1765999792197885000,36.45088500976563,-0.5142927169799805,-0.0845174789428711,0.9869859218597412,31.01327734375
1765999792216663800,36.46966381835937,-0.3632130622863769,-0.0638675689697265,0.763519823551178,31.032056152343745
1765999792235442700,36.48844262695312,-0.1877338886260986,-0.2163467407226562,0.5662645101547241,31.050834960937497
1765999792254221600,36.5072216796875,-0.1297407150268554,-0.1131649017333984,0.4239510893821716,31.06961401367187
1765999792273000400,36.52600048828125,0.0361120700836181,0.1966762542724609,0.171990156173706,31.08839282226562
1765999792291779600,36.54477954101562,-0.056861400604248,0.2597036361694336,0.2260839492082595,31.107171874999995
1765999792310558500,36.56355834960937,0.0494594573974609,-0.2221927642822265,-0.0314428582787513,31.125950683593747
1765999792329337300,36.58233740234375,0.9390840530395508,-0.5977668762207031,-0.3737231492996216,31.14472973632812
1765999792348116200,36.6011162109375,2.137903928756714,-0.2244997024536132,-0.0445859506726264,31.16350854492187
1765999792366895000,36.61989501953125,2.5962560176849365,0.5604524612426758,0.6917803883552551,31.182287353515623
1765999792385674200,36.63867431640625,1.8317806720733645,0.9197626113891602,0.4064889848232269,31.201066650390626
1765999792404453000,36.657453125,1.2480716705322266,0.6423482894897461,0.6358555555343628,31.219845458984377
1765999792423232000,36.67623193359375,0.7966099977493286,0.7822036743164062,1.2945877313613892,31.23862426757812
1765999792442011000,36.69501098632813,0.4489146471023559,0.7004232406616211,1.4261332750320437,31.257403320312502
1765999792460789800,36.71378979492187,0.9465844631195068,-0.1211462020874023,0.9461132884025574,31.276182128906246
1765999792479568600,36.73256860351562,1.903030633926392,-0.3159933090209961,-0.4243156313896179,31.29496093749999
1765999792498347500,36.751347412109375,2.999629020690918,0.7289848327636719,-1.7935611009597778,31.31373974609375
1765999792517126400,36.77012646484375,3.1157422065734863,1.7195892333984375,-2.5236382484436035,31.332518798828122
1765999792535905500,36.78890551757812,2.929893016815185,1.1628389358520508,-2.6962924003601074,31.351297851562496
1765999792554684400,36.807684326171874,2.5664501190185547,0.5503015518188477,-2.186717987060547,31.370076660156247
1765999792573463300,36.82646337890625,2.1668379306793213,0.6786127090454102,-1.6059081554412842,31.38885571289062
1765999792592242200,36.8452421875,1.8733586072921755,0.8825016021728516,-0.795833170413971,31.407634521484372
1765999792611021000,36.86402099609375,1.5346678495407104,0.7885723114013672,-0.3367913365364074,31.426413330078123
1765999792629800000,36.88280004882812,1.0870486497879028,0.6300439834594727,-0.6507679224014282,31.445192382812497
1765999792648578800,36.90157885742188,0.8415937423706055,0.4429178237915039,-1.658498764038086,31.463971191406255
1765999792667357700,36.920357666015626,1.0866546630859375,0.0292415618896484,-2.147612333297729,31.48275
1765999792686136800,36.93913671875,1.2165157794952393,-0.1118507385253906,-1.925230622291565,31.501529052734373
1765999792704915700,36.95791577148437,0.5305359363555908,0.2541437149047851,-1.6117093563079834,31.520308105468747
1765999792723694600,36.97669458007813,-0.097954511642456,0.5820465087890625,-2.0548110008239746,31.539086914062505
1765999792742473500,36.99547338867188,-0.8915648460388184,0.2590150833129883,-1.8478049039840696,31.557865722656256
1765999792761252400,37.01425244140625,-1.3335561752319336,0.0582180023193359,-1.0735265016555786,31.576644775390623
1765999792780031200,37.03303125,-0.7568051815032959,0.3843669891357422,0.3317945599555969,31.595423583984374
1765999792798810000,37.05181005859375,0.1621472835540771,0.8853788375854492,1.3628554344177246,31.614202392578125
1765999792817589000,37.070589111328125,0.266951322555542,1.5002498626708984,1.460002899169922,31.6329814453125
1765999792836368100,37.0893681640625,0.0962347984313964,1.972309112548828,0.7220603823661804,31.651760498046873
1765999792855147000,37.10814697265625,-0.6567689180374146,1.9748497009277344,0.2748913466930389,31.670539306640624
1765999792873926000,37.12692578125,-1.516635775566101,1.6114234924316406,0.6839090585708618,31.689318115234375
1765999792892704800,37.145704833984375,-2.022977828979492,1.1683244705200195,1.6415581703186035,31.70809716796875
1765999792911483600,37.164483642578126,-2.5019845962524414,1.093252182006836,2.9559221267700195,31.7268759765625
1765999792930262500,37.18326245117188,-0.818535566329956,-0.3892593383789062,4.248860836029053,31.74565478515625
1765999792949041400,37.20204150390625,-9.018548011779783,-0.8432607650756836,0.9035325646400452,31.764433837890625
1765999792967820300,37.2208203125,-3.028850078582764,1.7676763534545898,-0.96220064163208,31.783212646484376
1765999792986599400,37.239599365234376,-1.21723473072052,1.2102603912353516,1.1607173681259155,31.80199169921875
1765999793005378300,37.25837841796875,-1.0794241428375244,-0.4501791000366211,-2.204056024551392,31.820770751953123
1765999793024157200,37.2771572265625,-0.8263509273529053,1.4057769775390625,-5.554834365844727,31.839549560546875
1765999793042936000,37.29593603515625,-1.8091607093811035,-0.3479433059692383,-3.0913918018341064,31.858328369140626
1765999793071104500,37.3241044921875,-2.069621324539185,-2.714601516723633,-1.0655088424682615,31.886496826171875
1765999793089883400,37.34288330078125,-1.9349788427352903,-2.2131314277648926,0.3369625806808471,31.905275634765626
1765999793108662300,37.36166235351563,-2.797633171081543,-2.933579921722412,-0.1233265399932861,31.9240546875
1765999793127441200,37.38044116210938,-3.52615737915039,-3.572738647460937,-0.4369974136352539,31.94283349609375
1765999793146220000,37.39921997070312,-4.428863048553467,-3.9696216583251953,-0.3439754247665405,31.961612304687495
1765999793164999000,37.4179990234375,-4.696244716644287,-4.43253231048584,-0.5225693583488464,31.980391357421876
1765999793183777800,37.43677783203125,-4.966437339782715,-4.694324493408203,-0.1217577755451202,31.99917016601562
1765999793202557000,37.45555688476563,-5.082152843475342,-4.279520034790039,0.2022432088851928,32.017949218750005
1765999793221335800,37.47433569335937,-4.938700199127197,-3.656338214874268,0.345114916563034,32.03672802734374
1765999793240114700,37.49311474609375,-4.582790374755859,-3.2780141830444336,0.2761950194835663,32.05550708007813
1765999793258893600,37.5118935546875,-4.109333515167236,-3.2386622428894043,0.0519978106021881,32.07428588867187
1765999793277672400,37.53067236328125,-3.543529272079468,-3.0246353149414062,-0.1464125961065292,32.09306469726562
1765999793296451300,37.54945141601563,-3.203620433807373,-2.240117073059082,-0.2151171565055847,32.111843750000006
1765999793315230200,37.56823022460937,-2.728460788726806,-0.8671054840087891,-0.6626583933830261,32.13062255859374
1765999793334009000,37.58700903320312,-2.301254272460937,0.1391916275024414,-1.2038580179214478,32.149401367187494
1765999793352788000,37.6057880859375,-1.746382236480713,-0.1077146530151367,-1.6482367515563965,32.16818041992187
1765999793371567000,37.62456713867188,-1.3527345657348633,-0.5181221961975098,-1.0013480186462402,32.186959472656255
1765999793390346000,37.64334594726562,-1.0702581405639648,-0.2911610603332519,0.3102780878543854,32.20573828124999
1765999793409124900,37.662124755859374,-0.9993743896484376,0.1890602111816406,1.5858277082443235,32.224517089843744
1765999793427903700,37.68090380859375,-2.261716365814209,1.7341580390930176,2.671452283859253,32.24329614257812
1765999793446682600,37.6996826171875,0.1178092956542968,5.120141983032227,6.746837615966797,32.26207495117187
1765999793465461500,37.71846142578125,3.3720197677612305,5.63862419128418,7.322197437286377,32.28085375976562
1765999793484240400,37.73724047851562,5.397472381591797,8.15042495727539,1.3048728704452517,32.29963281249999
1765999793503019500,37.75601953125,7.099448204040527,8.658485412597656,-3.839937686920166,32.31841186523437
1765999793521798400,37.77479833984375,5.583464622497559,6.967277526855469,-6.732945442199707,32.33719067382812
1765999793540577300,37.79357739257812,3.539571762084961,2.8776206970214844,-6.622602462768555,32.35596972656249
1765999793559356200,37.81235620117187,-0.2936315536499023,1.303877830505371,-4.386018753051758,32.37474853515624
1765999793578135000,37.83113500976562,-1.9948577880859373,1.1340789794921875,-0.6611999869346619,32.393527343749994
1765999793596914000,37.849913818359376,-1.3726370334625244,-0.1266670227050781,1.003583312034607,32.412306152343746
1765999793615692800,37.86869287109375,0.6642508506774902,-1.6566696166992188,0.3433664441108703,32.43108520507812
1765999793634472000,37.88747192382812,1.448610544204712,-1.882596015930176,0.9480561017990112,32.44986425781249
1765999793653250800,37.906250732421874,2.2011775970458984,-0.2663164138793945,1.777108669281006,32.468643066406244
1765999793672029700,37.92502978515625,2.3140227794647217,1.7076311111450195,2.060837745666504,32.48742211914062
1765999793690808600,37.94380859375,1.6428203582763672,2.239652633666992,0.9647748470306396,32.50620092773437
1765999793709587500,37.96258740234375,1.817277193069458,1.0372085571289062,-0.4733945727348327,32.52497973632812
1765999793728366300,37.98136645507813,2.6544435024261475,0.0595026016235351,-1.536075234413147,32.54375878906251
1765999793747145500,38.0001455078125,3.798983573913574,0.1904478073120117,-1.9440357685089111,32.56253784179687
1765999793765924400,38.01892431640625,4.07822322845459,1.4438047409057615,-3.0610384941101074,32.58131665039062
1765999793784703200,38.037703125,3.768875122070313,1.970118522644043,-4.313203811645508,32.60009545898437
1765999793803482000,38.05648217773437,3.067302942276001,2.152290344238281,-5.0741963386535645,32.618874511718744
1765999793822261000,38.075260986328125,1.3076889514923096,3.260761260986328,-5.439309120178223,32.637653320312495
1765999793841040000,38.09403979492188,-0.2856073379516601,4.177534103393555,-5.57011604309082,32.65643212890626
1765999793859819000,38.11281909179687,-1.929626703262329,4.187572479248047,-6.716401100158691,32.67521142578124
