time,seconds_elapsed,z,y,x,t
1765999780773271800,25.026271728515624,-0.1988364905118942,0.117209680378437,-0.4815905094146728,19.53936962890625
1765999780792050700,25.04505078125,-0.2099847644567489,0.2957349121570587,-0.4180605709552765,19.558148681640628
1765999780810829600,25.06382958984375,-0.2481638193130493,0.2677878439426422,-0.3274998664855957,19.576927490234375
1765999780829608400,25.0826083984375,-0.264504462480545,0.1865428388118744,-0.2218202799558639,19.595706298828127
1765999780848387300,25.10138720703125,-0.2603811025619507,0.1653152853250503,-0.0952185466885566,19.614485107421878
1765999780867166500,25.12016650390625,-0.2759581506252289,0.2554178237915039,0.0300087314099073,19.633264404296877
1765999780885945000,25.138945068359376,-0.2883281707763672,0.4270708262920379,0.1579848974943161,19.652042968750003
1765999780904724200,25.15772412109375,-0.277332603931427,0.5574904680252075,0.3429242074489593,19.670822021484376
1765999780923502800,25.1765029296875,-0.2231183648109436,0.5881864428520203,0.576274573802948,19.689600830078128
1765999780942282000,25.195281982421875,-0.0801760032773017,0.502359926700592,0.8690314888954163,19.7083798828125
1765999780961060900,25.214060791015623,0.1359174102544784,0.2595411837100982,1.2520437240600586,19.72715869140625
1765999780979839700,25.23283984375,0.5047270059585571,0.0020616685505956,1.497305989265442,19.745937744140626
1765999780998618600,25.25161865234375,1.0380120277404783,-0.1854738146066665,1.5273910760879517,19.764716552734377
1765999781017397500,25.2703974609375,1.620624303817749,-1.3519201278686523,1.2835032939910889,19.783495361328125
1765999781036176400,25.28917626953125,2.263253927230835,-2.4389538764953613,0.7436515092849731,19.802274169921876
1765999781054955300,25.307955322265624,2.793484687805176,-3.169090032577514,0.2034943252801895,19.82105322265625
1765999781073734100,25.32673413085937,3.0080509185791016,-3.469177484512329,-0.1120173260569572,19.839832031249998
1765999781092513000,25.34551293945313,2.9265005588531494,-2.805014610290528,-0.423863798379898,19.858610839843756
1765999781111292000,25.3642919921875,2.998735189437866,-1.5220459699630735,-1.159650444984436,19.877389892578126
1765999781130070800,25.38307080078125,3.0967791080474854,-0.2598465979099273,-1.6379575729370115,19.896168701171877
1765999781148849700,25.401849609375,3.0434811115264893,0.1269835233688354,-2.0541090965271,19.914947509765625
1765999781167628500,25.420628662109376,2.8713698387146,-0.14882193505764,-2.470413446426392,19.933726562500002
1765999781186407400,25.439407470703124,2.349691390991211,-1.378034591674805,-1.9007821083068848,19.95250537109375
1765999781214575600,25.46757568359375,-0.0893389731645584,-0.7181479334831238,-0.29374960064888,19.980673583984377
1765999781233354500,25.4863544921875,0.3845393657684326,-0.3823249936103821,-0.7911462187767029,19.999452392578124
1765999781252133400,25.50513330078125,0.9221003651618958,0.0594829581677913,-0.7325032353401184,20.018231201171876
1765999781270912300,25.523912353515627,0.4072940945625305,0.4554760456085205,-0.469678670167923,20.037010253906253
1765999781289691100,25.54269116210937,-0.0649043843150138,0.3322340846061706,-0.025427246466279,20.055789062499997
1765999781308470000,25.56146997070313,-0.2461785078048706,-0.2216675579547882,0.1886808574199676,20.074567871093755
1765999781327249000,25.580248779296877,-0.4857902228832245,-0.1304959952831268,0.451200008392334,20.093346679687503
1765999781346027800,25.59902783203125,-0.7984002828598022,0.2783252596855163,0.858646810054779,20.112125732421877
1765999781364806700,25.617806640625,-1.0235038995742798,0.6943241953849792,1.2097413539886477,20.130904541015624
1765999781383585500,25.63658544921875,-1.2902991771697998,1.2549452781677246,1.4652355909347534,20.149683349609376
1765999781402364400,25.655364501953127,-1.5810707807540894,1.733557939529419,1.645746111869812,20.168462402343753
1765999781421143300,25.674143310546874,-1.7614285945892334,1.9241477251052856,1.7932698726654053,20.1872412109375
1765999781439922200,25.692922119140626,-1.8613049983978271,1.876347541809082,1.882150769233704,20.206020019531252
1765999781458701000,25.711701171875,-1.9642356634140012,1.7631847858428955,1.899713158607483,20.224799072265625
1765999781477480000,25.73047998046875,-2.039371967315674,1.642997145652771,1.8519129753112795,20.243577880859377
1765999781496258800,25.7492587890625,-2.0476186275482178,1.3966659307479858,1.758450627326965,20.262356689453128
1765999781515037700,25.76803759765625,-2.0292928218841557,1.160719394683838,1.593669891357422,20.281135498046876
1765999781533816600,25.786816650390627,-1.997833251953125,1.045266032218933,1.3357322216033936,20.299914550781253
1765999781552595500,25.80559545898437,-1.8671082258224487,1.039615511894226,1.006170630455017,20.318693359374997
1765999781571374300,25.82437426757813,-1.7426445484161377,1.0370193719863892,0.6375137567520142,20.337472167968755
1765999781590153200,25.8431533203125,-1.7250821590423584,1.1958441734313965,0.2593884468078613,20.356251220703125
1765999781608932000,25.86193212890625,-1.7426445484161377,1.1799616813659668,-0.0484873913228511,20.375030029296877
1765999781627711000,25.8807109375,-1.6704097986221311,1.3383283615112305,-0.2816850244998932,20.393808837890628
1765999781646489900,25.89948974609375,-1.2461642026901243,1.8619922399520876,-0.4113410711288452,20.412587646484376
1765999781665268700,25.918268798828127,-0.3159697949886322,2.225456714630127,-0.5159516930580139,20.431366699218753
1765999781684047600,25.937047607421874,-0.0409279391169548,2.016235589981079,-1.0107520818710327,20.4501455078125
1765999781702826500,25.955826416015626,-0.1608101576566696,1.1744638681411743,-1.3485603332519531,20.46892431640625
1765999781721605400,25.97460546875,0.0765108168125152,-0.2540434002876282,-1.2996912002563477,20.487703369140625
1765999781740384300,25.99338427734375,0.0882699638605117,-1.2827396392822266,-0.87254399061203,20.506482177734377
1765999781759163100,26.0121630859375,-0.0595593154430389,-1.1475858688354492,-0.5918515920639038,20.525260986328128
1765999781777942000,26.03094189453125,-0.0331394150853157,-0.5231293439865112,-0.604374349117279,20.544039794921876
1765999781796721000,26.049720947265627,0.1151480078697204,-0.2128100246191024,-0.5400808453559875,20.562818847656253
1765999781815499800,26.06849975585937,0.2257145345211029,-0.5054142475128174,-0.5208385586738586,20.581597656249997
1765999781834278700,26.08727856445313,0.187382772564888,-0.857730507850647,-0.5026653409004211,20.600376464843755
1765999781853057500,26.1060576171875,-0.015882484614849,-0.9795980453491212,-0.4826595485210418,20.619155517578125
1765999781871836400,26.12483642578125,-0.1634063273668289,-0.6737074851989746,-0.4918225109577179,20.637934326171877
1765999781890615300,26.143615234375,-0.1696676909923553,-0.1700494885444641,-0.4896844923496246,20.656713134765628
1765999781909394400,26.16239453125,-0.1684459596872329,0.1358410567045211,-0.4362338185310364,20.675492431640627
1765999781928173000,26.181173095703127,-0.2744309902191162,0.2311359643936157,-0.3388008773326874,20.694270996093753
1765999781946952200,26.1999521484375,-0.3743073940277099,0.2467130124568939,-0.23648102581501,20.713050048828126
1765999781965730800,26.218730712890626,-0.3715584874153137,0.2144898921251297,-0.1466839015483856,20.73182861328125
1765999781984510000,26.237510009765625,-0.3410152494907379,0.1277471035718917,-0.065286174416542,20.75060791015625
1765999782003288800,26.256288818359376,-0.346513032913208,0.1702021956443786,0.0295505840331316,20.769386718750003
1765999782022067700,26.275067626953124,-0.3437641561031341,0.2622900605201721,0.1581376194953918,20.78816552734375
1765999782040846600,26.2938466796875,-0.3320049941539764,0.3931678533554077,0.2884045243263244,20.806944580078127
1765999782059625500,26.31262548828125,-0.236251950263977,0.3924042582511902,0.4241692423820495,20.825723388671875
1765999782078404400,26.331404296875,-0.1495091617107391,0.3447568118572235,0.5779544115066528,20.844502197265626
1765999782097183200,26.35018334960937,-0.1030834317207336,0.373162031173706,0.7619774341583252,20.863281249999996
1765999782115962000,26.368962158203125,0.0453567095100879,0.4172970056533813,0.9861648082733154,20.88206005859375
1765999782134741000,26.38774096679688,0.3225366175174713,0.3902662396430969,1.190040946006775,20.900838867187506
1765999782153519900,26.406519775390624,0.5006036758422852,0.088346317410469,1.2210423946380615,20.91961767578125
1765999782172298800,26.425298828125,0.7831286191940308,-0.2813795804977417,1.0335068702697754,20.938396728515627
1765999782191077600,26.44407763671875,1.2371538877487185,-0.8331431746482849,0.6266708970069885,20.957175537109375
1765999782209856500,26.4628564453125,1.5961896181106567,-1.3195443153381348,0.2012035846710205,20.975954345703126
1765999782228635400,26.481635498046877,1.6774346828460691,-1.5693880319595337,-0.0578030794858932,20.994733398437504
1765999782247414300,26.500414306640625,1.5848886966705322,-1.2437970638275146,-0.1671478748321533,21.01351220703125
1765999782266193200,26.519193115234376,1.3028218746185305,-0.3291797637939453,-0.3765217661857605,21.032291015625002
1765999782284972000,26.537971923828124,0.9753983616828918,0.7940478324890137,-0.641331672668457,21.05106982421875
1765999782303751000,26.5567509765625,0.7008146047592163,1.9456807374954224,-0.7960331439971924,21.069848876953127
1765999782322529800,26.57552978515625,0.3781253099441528,2.8673229217529297,-0.9116393327713012,21.088627685546875
1765999782341308700,26.59430859375,0.141262486577034,3.2439210414886475,-1.0454187393188477,21.107406494140626
1765999782360087600,26.613087646484374,0.3243691921234131,2.75981068611145,-1.426292896270752,21.126185546875
1765999782378866400,26.631866455078125,0.8371901512145996,1.4733295440673828,-2.0589962005615234,21.14496435546875
1765999782397645300,26.65064526367188,1.4706569910049438,-0.2041051983833313,-2.7217843532562256,21.163743164062506
1765999782416424200,26.669424072265624,1.9149084091186523,-2.47102427482605,-3.290652275085449,21.18252197265625
1765999782435203000,26.688203125,2.200335025787353,-4.567817687988281,-3.008432626724243,21.201301025390627
1765999782453982000,26.70698193359375,1.3866630792617798,-4.354167938232422,-1.0858885049819946,21.220079833984375
1765999782472760800,26.7257607421875,0.9407317638397216,-2.526765823364258,-2.045251607894897,21.238858642578126
1765999782491539700,26.744539794921877,1.8028147220611568,-1.700418472290039,-2.314337491989136,21.257637695312503
1765999782510318600,26.763318603515625,1.5645774602890017,-0.8094722032546997,-1.9589669704437256,21.27641650390625
1765999782529097500,26.782097412109376,0.5586358308792114,0.1786015927791595,-1.5615994930267334,21.295195312500002
1765999782547876400,26.80087646484375,-0.2179260104894638,0.8450550436973572,-0.912708342075348,21.313974365234376
1765999782566655200,26.8196552734375,-0.7024945020675659,1.24058997631073,-0.5959749221801758,21.332753173828127
1765999782585434000,26.83843408203125,-1.0367902517318726,1.76165771484375,-0.3027598559856415,21.351531982421875
1765999782604213000,26.857212890625,-1.2412772178649902,1.9175808429718015,0.0718529671430587,21.370310791015626
1765999782622992000,26.875991943359374,-1.28083074092865,1.5681662559509275,0.4421897530555725,21.38908984375
1765999782641770800,26.894770751953125,-1.3017528057098389,1.276936411857605,0.7114284038543701,21.40786865234375
1765999782660549600,26.91354956054688,-1.2997674942016602,1.2989275455474854,0.8574250936508179,21.426647460937506
1765999782679328500,26.93232861328125,-1.1976003646850586,1.378950834274292,0.977154552936554,21.445426513671876
1765999782698107400,26.951107421875,-1.0132719278335571,1.3991093635559082,1.0976476669311523,21.464205322265627
1765999782716886300,26.96988623046875,-0.8448259830474854,1.3364957571029663,1.223485827445984,21.482984130859375
1765999782735665200,26.9886650390625,-0.7455604672431946,1.1346049308776855,1.331456184387207,21.501762939453126
1765999782754444300,27.0074443359375,-0.6617192625999451,0.8751401305198669,1.434539556503296,21.520542236328126
1765999782773223000,27.026222900390625,-0.5390881896018982,0.6975312232971191,1.5225040912628174,21.53932080078125
