time,seconds_elapsed,z,y,x,t
1765999783787283000,28.04028295898437,-0.0836884751915931,0.2694677114486694,-0.4223366379737854,22.553380859374997
1765999783806061800,28.059061767578125,-0.1018617004156112,0.2897789776325226,-0.4282925724983215,22.57215966796875
1765999783824840700,28.0778408203125,-0.1001818254590034,0.2925278842449188,-0.4318050444126129,22.590938720703125
1765999783843619600,28.09661962890625,-0.1091920807957649,0.2945131957530975,-0.4334849119186401,22.609717529296876
1765999783862398500,28.1153984375,-0.0902552679181099,0.2688568532466888,-0.4304305911064148,22.628496337890628
1765999783881177300,28.13417724609375,-0.0813977345824241,0.2262490391731262,-0.4263072609901428,22.647275146484375
1765999783899956200,28.152956298828126,-0.0765108168125152,0.1720348000526428,-0.4186714589595794,22.666054199218753
1765999783918735400,28.1717353515625,-0.0609337612986564,0.1141553521156311,-0.400803655385971,22.684833251953126
1765999783937514200,28.19051416015625,-0.048105601221323,0.0622318498790264,-0.3809505403041839,22.703612060546877
1765999783956293000,28.209293212890625,-0.0514653585851192,0.0026725335046648,-0.3586539924144745,22.72239111328125
1765999783975072000,28.228072021484376,-0.0424551032483577,-0.0255799628794193,-0.3388008773326874,22.741169921875002
1765999783993851000,28.246850830078124,-0.0323758348822593,0.0174860041588544,-0.3148244321346283,22.75994873046875
1765999784012629800,28.265629638671875,-0.0357355885207653,0.0917060747742652,-0.2873355150222778,22.7787275390625
1765999784031408600,28.28440869140625,-0.0302378069609403,0.1653152853250503,-0.2436586916446685,22.797506591796875
1765999784050187500,28.3031875,-0.0423023849725723,0.1822667717933654,-0.1984546929597854,22.816285400390626
1765999784068966400,28.32196630859375,-0.0525343716144561,0.189444437623024,-0.1758527010679245,22.835064208984377
1765999784087745300,28.340745361328125,-0.05467239767313,0.241062507033348,-0.1663842946290969,22.85384326171875
1765999784106524200,28.35952416992188,-0.0687222853302955,0.3052033185958862,-0.1596647799015045,22.872622070312506
1765999784125303000,28.378302978515624,-0.0842993408441543,0.3620137274265289,-0.1575267612934112,22.89140087890625
1765999784144082000,28.39708203125,-0.1006399691104888,0.4137845337390899,-0.1515708267688751,22.910179931640627
1765999784162860800,28.41586083984375,-0.1073594838380813,0.5338194370269775,-0.1329394429922104,22.928958740234375
1765999784181639700,28.4346396484375,-0.1009454056620597,0.6121628880500793,-0.1033125072717666,22.947737548828126
1765999784200418600,28.45341845703125,-0.0778852626681327,0.598723828792572,-0.0738382786512374,22.966516357421877
1765999784219197400,28.472197509765625,-0.0328339822590351,0.4501309990882873,-0.037949975579977,22.98529541015625
1765999784237976600,28.4909765625,0.0015271619195118,0.1781434416770935,-0.0106137758120894,23.004074462890625
1765999784256755200,28.509755126953124,0.0320704020559787,-0.1185841262340545,-0.0008399390499107,23.02285302734375
1765999784275534300,28.528534423828123,0.0039706211537122,-0.2719111740589142,-0.015653409063816,23.04163232421875
1765999784294313200,28.547313232421875,-0.0412333719432354,-0.1335503160953521,-0.0113773569464683,23.0604111328125
1765999784313092000,28.566092041015622,-0.065515249967575,0.0819322392344474,-0.0144316805526614,23.07918994140625
1765999784331871000,28.58487109375,-0.0707075968384742,0.1795178800821304,-0.0151952616870403,23.097968994140626
1765999784350649900,28.60364990234375,-0.0855210721492767,0.0139735322445631,0.0107664912939071,23.116747802734377
1765999784369428700,28.6224287109375,-0.0933095961809158,-0.088346317410469,0.0588720925152301,23.135526611328125
1765999784388207600,28.64120751953125,-0.0913242846727371,-0.1089630052447319,0.1039233729243278,23.154305419921876
1765999784416375800,28.66937573242188,-0.0801760032773017,-0.0746018588542938,0.2068540900945663,23.182473632812506
1765999784435155000,28.68815502929688,-0.0902552679181099,-0.0352010838687419,0.2607629001140594,23.201252929687506
1765999784453933600,28.70693359375,-0.0943786054849624,0.0180968698114156,0.2960403561592102,23.220031494140628
1765999784482102000,28.73510205078125,-0.1044578775763511,0.0539851747453212,0.3488801419734955,23.248199951171877
1765999784500881000,28.753880859375,-0.1149952933192253,-0.0147371124476194,0.3774380683898926,23.266978759765625
1765999784519659800,28.77265966796875,-0.1186604797840118,-0.0781143307685852,0.3975966274738312,23.285757568359376
1765999784547828200,28.800828125,-0.1470656991004943,-0.0713948234915733,0.4272235631942749,23.313926025390625
1765999784566607000,28.819607177734376,-0.1618791669607162,-0.0495564043521881,0.4369973838329315,23.332705078125002
1765999784585386000,28.838385986328124,-0.1588248461484909,-0.0874300226569175,0.4386772811412811,23.35148388671875
1765999784604164900,28.857164794921875,-0.1802051067352295,-0.1895971596240997,0.4350120723247528,23.3702626953125
1765999784622943700,28.87594384765625,-0.2050978541374206,-0.2919169962406158,0.4402044415473938,23.389041748046875
1765999784641722600,28.89472265625,-0.2696968019008636,-0.3442986607551574,0.4395935535430908,23.407820556640626
1765999784660501500,28.91350146484375,-0.3443750143051147,-0.2900844216346741,0.4405098557472229,23.426599365234377
1765999784679280400,28.9322802734375,-0.4335612654685974,-0.2016617357730865,0.4333322048187256,23.445378173828125
1765999784698059300,28.95105932617188,-0.5175551772117615,-0.1398116797208786,0.4145480990409851,23.464157226562506
1765999784716838400,28.96983837890625,-0.6235402226448059,-0.1361464858055114,0.3601811528205871,23.482936279296876
1765999784735617300,28.9886171875,-0.7174606919288635,-0.1485165059566497,0.2742019295692444,23.501715087890627
1765999784773175000,29.02617504882813,-0.7954986691474915,-0.1060613989830017,0.1500436663627624,23.539272949218756
1765999784791954000,29.044953857421877,-0.7895427346229553,-0.3476584255695343,0.1585957705974578,23.558051757812503
1765999784810732800,29.06373291015625,-0.7122683525085449,-0.7404444813728333,0.1889862865209579,23.576830810546877
1765999784829511700,29.08251171875,-0.7428115606307983,-1.0364084243774414,0.1961639523506164,23.595609619140625
1765999784848290600,29.10129052734375,-0.85918128490448,-0.8794162273406982,0.1708130687475204,23.614388427734376
1765999784876459000,29.129458984375,-0.6464476585388184,-0.3415497839450836,0.3220020830631256,23.642556884765625
1765999784895238000,29.14823779296875,-0.1455385386943817,-0.2963457703590393,0.4148535430431366,23.661335693359376
1765999784914016800,29.167016845703124,0.6349939107894897,-0.9056833982467652,0.4808269441127777,23.68011474609375
1765999784932795600,29.185795654296875,1.331685185432434,-2.007072687149048,0.7164680361747742,23.6988935546875
1765999784951574500,29.204574462890623,1.844353437423706,-2.4424664974212646,1.0290781259536743,23.71767236328125
1765999784970353400,29.223353515625,2.121380567550659,-2.0283000469207764,1.2550981044769287,23.736451416015626
1765999784989132300,29.24213232421875,2.232558012008667,-1.1695770025253296,1.2746456861495972,23.755230224609377
1765999785007911200,29.2609111328125,2.355494499206543,-0.42798712849617,1.0787107944488523,23.774009033203125
1765999785026690000,29.27968994140625,2.5389068126678467,-0.1393535286188125,0.7343358397483826,23.792787841796876
1765999785054858500,29.3078583984375,2.55555272102356,-0.5646681189537048,0.1126281917095184,23.820956298828126
1765999785073637400,29.32663745117188,2.398865938186645,-1.0299943685531616,-0.257250428199768,23.839735351562506
1765999785092416300,29.345416259765624,2.1635303497314453,-1.3094650506973269,-0.5723039507865906,23.85851416015625
1765999785111195100,29.364195068359376,1.934914231300354,-1.2854886054992676,-0.8427643179893494,23.87729296875
1765999785129974000,29.38297412109375,1.704618215560913,-1.0211368799209597,-1.1280381679534912,23.896072021484375
1765999785148753000,29.4017529296875,1.43232524394989,-0.7749583125114441,-1.4455351829528809,23.914850830078127
1765999785167531800,29.42053173828125,1.131474256515503,-0.6469821333885193,-1.7615050077438354,23.933629638671878
1765999785186310700,29.439310546875,0.8875865340232849,-0.6347648501396179,-2.063883066177368,23.952408447265626
1765999785205089500,29.458089599609377,0.6988292932510376,-0.8465822339057922,-2.345033645629883,23.971187500000003
1765999785223868400,29.476868408203124,0.5299251675605774,-1.1515564918518066,-2.6075527667999268,23.98996630859375
1765999785242647300,29.49564721679688,0.3726275265216827,-1.3856704235076904,-2.837543249130249,24.008745117187505
1765999785261426200,29.51442626953125,0.2533561587333679,-1.48371422290802,-3.016832113265991,24.027524169921875
1765999785280205000,29.533205078125,0.1834121495485305,-1.6292526721954346,-3.0006442070007324,24.046302978515627
1765999785298984000,29.55198388671875,-0.1956294476985931,-2.5008039474487305,-1.8882594108581543,24.065081787109378
1765999785317763000,29.57076318359375,-0.4575377106666565,-1.1613303422927856,-1.829921841621399,24.083861083984377
1765999785336542000,29.5895419921875,-0.1090393662452697,-0.3586539924144745,-2.173991441726685,24.102639892578125
1765999785355320800,29.60832080078125,-0.1314886510372162,-0.0484873913228511,-1.785023212432861,24.121418701171876
1765999785374099700,29.627099609375,-0.4340194165706634,0.4334849119186401,-1.4003311395645142,24.140197509765628
1765999785392878600,29.64587866210937,-0.5061014890670776,0.6802743077278137,-0.899116575717926,24.158976562499998
1765999785411657500,29.664657470703126,-0.4586067199707031,0.3099375069141388,-0.2842811942100525,24.177755371093753
1765999785430436400,29.683436279296878,-0.4285216331481933,0.4521162807941437,0.5028180480003357,24.196534179687504
1765999785449215200,29.70221533203125,-0.4089739620685577,1.0686315298080444,1.3951387405395508,24.215313232421877
1765999785467994000,29.720994140625,-0.4651735424995422,1.7998367547988892,2.0951898097991943,24.234092041015625
1765999785486773000,29.73977294921875,-0.5164861679077148,2.2472951412200928,2.5450916290283203,24.252870849609376
1765999785505552000,29.7585517578125,-0.5401571989059448,2.2582907676696777,2.845637321472168,24.271649658203128
1765999785524330800,29.777330810546875,-0.565049946308136,1.927049279212952,3.0253841876983643,24.2904287109375
1765999785543109600,29.796109619140623,-0.625067412853241,1.4655410051345823,3.091968536376953,24.30920751953125
1765999785561888800,29.814888671875,-0.7257073521614075,1.1608721017837524,3.086165189743042,24.327986572265626
1765999785580667400,29.83366748046875,-0.8445205688476562,1.031063437461853,3.0044620037078857,24.346765380859377
1765999785599446500,29.852446533203125,-0.9775363802909852,1.0244965553283691,2.8557164669036865,24.36554443359375
1765999785618225400,29.87122534179688,-1.0326669216156006,0.9908990263938904,2.64145565032959,24.384323242187506
1765999785637004300,29.89000439453125,-0.9445496797561646,0.9437097311019896,2.386572360992432,24.403102294921876
1765999785655783200,29.908783203125,-0.8087849617004395,0.8740711212158203,2.0753366947174072,24.421881103515627
1765999785674562000,29.92756201171875,-0.7011200785636902,0.5749000906944275,1.721646070480347,24.440659912109375
1765999785693341000,29.9463408203125,-0.6314814686775208,0.0973565727472305,1.3627629280090332,24.459438720703126
1765999785712119800,29.965119873046877,-0.6249146461486816,-0.2917642891407013,1.0211368799209597,24.478217773437503
1765999785730898700,29.983898681640625,-0.592233419418335,-0.5084685683250427,0.6703477501869202,24.49699658203125
1765999785749677600,30.002677490234376,-0.5664243698120117,-0.4689150750637054,0.3368155658245086,24.515775390625002
1765999785768456400,30.02145654296875,-0.6192641854286194,-0.132175862789154,0.0005345066892914,24.534554443359376
1765999785787235300,30.0402353515625,-0.6258309483528137,0.5344303250312805,-0.3400225937366485,24.553333251953127
1765999785806014200,30.05901416015625,-0.5984947681427002,1.972406029701233,-1.1384228467941284,24.572112060546875
1765999785824793000,30.07779296875,-0.3029889166355133,1.7844123840332031,-1.063286542892456,24.590890869140626
1765999785843572000,30.096572021484373,0.0726929083466529,1.5858813524246216,-1.0664935111999512,24.609669921875
