time,seconds_elapsed,z,y,x,t
1765999761184607700,5.437607666015625,6.341297149658203,1.057294845581055,-4.84913969039917,0.0
1765999761203386600,5.45638671875,3.7010927200317374,3.0712814331054688,-3.986323833465576,0.018779052734375412
1765999761222165500,5.47516552734375,-0.1812489032745361,4.850506782531738,-0.1735466718673706,0.037557861328124886
1765999761240944000,5.493944091796875,-2.5089359283447266,3.667666435241699,3.765165328979492,0.0563364257812502
1765999761259723000,5.512722900390625,-2.923558235168457,1.1654653549194336,3.952188491821289,0.07511523437500056
1765999761278502000,5.531501953125,-1.0300662517547607,1.8527984619140625,4.71185302734375,0.09389428710937509
1765999761297280500,5.550280517578125,1.499705195426941,4.517212867736816,4.9380784034729,0.1126728515625004
1765999761316059400,5.569059326171875,1.885249376296997,4.85692310333252,1.817312479019165,0.13145166015624987
1765999761334838300,5.58783837890625,0.0966923236846923,5.112508773803711,-1.1575617790222168,0.15023071289062528
1765999761353617000,5.606616943359375,-0.9480836391448976,4.849747657775879,-1.3387186527252195,0.1690092773437506
1765999761372395800,5.625395751953125,-2.5569610595703125,2.9195709228515625,0.3505845665931701,0.18778808593750007
1765999761391174700,5.644174560546875,0.3063177466392517,0.6019601821899414,2.42160701751709,0.20656689453125043
1765999761409953300,5.662953369140625,-8.743700981140137,-6.889469146728516,7.973978996276855,0.2253457031249999
1765999761438121500,5.69112158203125,-3.4771885871887207,7.26924991607666,-1.5655018091201782,0.253513916015625
1765999761456900400,5.709900390625,0.9294089078903198,-0.1576366424560547,-0.1876599937677383,0.27229272460937537
1765999761475679000,5.728678955078125,-0.1626590490341186,-5.244640350341797,-4.458431243896484,0.2910712890625007
1765999761494457900,5.747457763671875,-2.1427669525146484,-3.772859573364258,-7.47692060470581,0.30985009765625016
1765999761513236700,5.76623681640625,-3.4795827865600586,-3.66288948059082,-2.2369749546051025,0.32862915039062557
1765999761532015400,5.785015380859375,-3.8010549545288086,-4.518422603607178,2.9952611923217773,0.34740771484375
1765999761550794200,5.803794189453125,-3.94580340385437,-3.1881351470947266,2.616736888885498,0.36618652343750036
1765999761569572900,5.82257275390625,-4.098325729370117,-1.7554054260253906,-0.3086686134338379,0.38496508789062567
1765999761588351700,5.841351806640625,-4.154291152954102,-2.000265121459961,-2.0909695625305176,0.4037441406250002
1765999761607130600,5.860130615234375,-3.616569995880127,-3.3189563751220703,-3.3079910278320312,0.42252294921875055
1765999761625909200,5.8789091796875,-3.4314355850219727,-3.931463718414306,-3.081012010574341,0.441301513671875
1765999761654077400,5.907077392578125,-3.853766918182373,-3.2732667922973637,-0.7797733545303345,0.4694697265625001
1765999761672856300,5.925856201171875,-3.980124711990357,-2.966378688812256,-0.059645652770996,0.48824853515625044
1765999761691635000,5.944635009765625,-3.8213629722595215,-2.638516426086426,-0.1206625699996948,0.5070273437499999
1765999761710413800,5.963413818359375,-3.520834445953369,-2.099517822265625,-0.2365123629570007,0.5258061523437503
1765999761729192700,5.982192626953125,-3.007045030593872,-1.6352663040161133,-0.3225913643836975,0.5445849609375006
1765999761747971300,6.000971435546875,-2.588322401046753,-1.3252782821655271,-0.8469493389129639,0.5633637695312501
1765999761766750200,6.019750244140625,-2.063138961791992,-1.2616987228393557,-0.9522839188575744,0.5821425781250005
1765999761785528800,6.03852880859375,-2.039844274520874,-1.3369636535644531,-0.7609327435493469,0.6009211425781249
1765999761804307700,6.0573076171875,-2.084334135055542,-1.4221620559692385,-0.4386680126190185,0.6196999511718753
1765999761823086600,6.076086669921875,-1.83968985080719,-1.1546039581298828,-0.0108644962310791,0.6384790039062507
1765999761841865200,6.094865234375,-1.7630033493041992,-0.8342380523681641,0.2695555090904236,0.6572575683593751
1765999761870033400,6.123033447265625,-2.1115763187408447,-0.8565769195556641,0.8622574210166931,0.6854257812500002
1765999761888812300,6.141812255859375,-2.199577808380127,-0.3119430541992187,0.977726399898529,0.7042045898437506
1765999761907591000,6.1605908203125,-2.2643818855285645,0.8840713500976562,0.5788108706474304,0.722983154296875
1765999761926369800,6.179369873046875,-1.87188458442688,1.5420284271240234,0.3384673595428467,0.7417622070312504
1765999761945148700,6.198148681640625,-1.3005058765411377,1.497819900512695,-0.0551265478134155,0.7605410156249999
1765999761963927300,6.21692724609375,-0.7634673118591309,1.2227296829223633,-0.0548418164253234,0.7793195800781252
1765999761982706200,6.2357060546875,-0.4802987575531006,1.1347274780273438,0.6563280820846558,0.7980983886718755
1765999762001485000,6.254485107421875,-0.6222066879272461,1.2367668151855469,1.232366919517517,0.8168774414062501
1765999762020263700,6.273263671875,-0.7713446617126465,1.335651397705078,1.6219162940979004,0.8356560058593754
1765999762039042600,6.29204248046875,-0.4579734802246094,2.014491081237793,1.7611684799194336,0.8544348144531249
1765999762067210800,6.320210693359375,1.4346853494644165,3.876953125,1.2755855321884155,0.88260302734375
1765999762085989400,6.3389892578125,7.790570259094238,5.923564910888672,-2.2911741733551025,0.9013815917968753
1765999762104768300,6.357768310546875,11.362083435058594,7.078768730163574,-6.342005729675293,0.9201606445312507
1765999762123547100,6.376547119140625,3.469565868377685,5.08934211730957,-7.658501625061035,0.9389394531250002
1765999762142325800,6.39532568359375,-1.054689884185791,0.3813858032226562,-5.983578205108643,0.9577180175781255
1765999762161104600,6.414104736328125,-3.7361650466918954,-3.1428356170654297,-0.9783604145050048,0.9764970703125
1765999762179883300,6.43288330078125,-3.732667922973633,-3.384695529937744,1.470102310180664,0.9952756347656253
1765999762198662100,6.451662109375,-1.442509412765503,-1.9580178260803225,2.5134623050689697,1.0140544433593757
1765999762217441000,6.47044091796875,-0.129357099533081,0.1337785720825195,1.9109960794448853,1.0328332519531251
1765999762236219600,6.4892197265625,0.5774374008178711,1.2500638961791992,-0.2042966187000274,1.0516120605468755
1765999762254998500,6.50799853515625,1.011086106300354,1.1100788116455078,-2.0693347454071045,1.070390869140625
1765999762273777400,6.52677734375,1.5124074220657349,0.1980981826782226,-2.0573623180389404,1.0891696777343753
1765999762292556000,6.54555615234375,2.1008214950561523,-0.2706508636474609,-0.6364027261734009,1.1079484863281257
1765999762311335000,6.5643349609375,2.1872482299804688,0.006866455078125,0.9301975965499878,1.1267272949218752
1765999762330113800,6.58311376953125,1.7490193843841553,0.6528177261352539,1.6593458652496338,1.1455061035156255
1765999762348892400,6.601892333984375,0.4940681457519531,0.6459770202636719,2.018803358078003,1.16428466796875
1765999762386450200,6.6394501953125,-0.3637596368789673,-0.3813810348510742,-0.3682641088962555,1.2018425292968749
1765999762405228800,6.658228759765625,0.0142121315002441,-0.342681884765625,-0.544184684753418,1.2206210937500002
1765999762424007700,6.677007568359375,0.5029840469360352,-0.2654294967651367,-0.2499973475933075,1.2393999023437505
1765999762442786300,6.695786376953125,1.1643612384796145,-0.3494024276733398,-0.2572137713432312,1.2581787109375
1765999762461565200,6.714565185546875,1.6275348663330078,-0.2903890609741211,-0.3578909039497375,1.2769575195312504
1765999762480344000,6.733343994140625,2.074270009994507,-0.2650718688964844,-0.5802087783813477,1.2957363281249998
1765999762499122700,6.752122802734375,2.8174521923065186,-0.2736930847167969,-0.5984098315238953,1.3145151367187502
1765999762517901600,6.770901611328125,4.063078880310059,-0.1184911727905273,-0.4968820214271545,1.3332939453125006
1765999762536680400,6.789680419921875,5.090788841247559,0.7212867736816406,-0.1996082663536071,1.35207275390625
1765999762555459000,6.808458984375,4.513185977935791,1.6489143371582031,-1.7197073698043823,1.3708513183593753
1765999762574238000,6.827238037109375,3.694682121276856,0.1663503646850586,-4.441075325012207,1.3896303710937499
1765999762593016800,6.846016845703125,2.888508081436157,-1.0719976425170898,-5.888073921203613,1.4084091796875002
1765999762611795500,6.86479541015625,1.3306061029434204,-1.151432991027832,-4.96129846572876,1.4271877441406255
1765999762630574300,6.88357421875,-0.9747519493103028,-0.224766731262207,-2.543551445007324,1.445966552734375
1765999762649353000,6.90235302734375,-2.449678421020508,1.1066551208496094,0.4922493696212768,1.4647453613281254
1765999762668131800,6.9211318359375,-1.1517038345336914,1.9084367752075195,2.814910411834717,1.4835241699218749
1765999762686910700,6.93991064453125,0.7405998706817627,2.5140161514282227,3.6074392795562735,1.5023029785156252
1765999762715079000,6.968078857421875,1.2119910717010498,3.6094913482666016,0.4424245953559875,1.5304711914062503
1765999762733857500,6.986857421875,1.082352876663208,3.5981521606445312,-1.8709863424301147,1.5492497558593756
1765999762752636400,7.005636474609375,0.3241662979125976,3.393378257751465,-3.0302350521087646,1.5680288085937502
1765999762771415000,7.0244150390625,-0.6683588027954102,3.175117492675781,-2.4952733516693115,1.5868073730468755
1765999762790194000,7.04319384765625,-1.876265048980713,2.313431739807129,-0.7865088582038879,1.605586181640625
1765999762808972800,7.061972900390625,-2.5578420162200928,1.3519411087036133,1.0589452981948853,1.6243652343750004
1765999762827751700,7.080751708984375,-2.2898526191711426,0.7733869552612305,2.690143823623657,1.6431440429687498
1765999762846530300,7.0995302734375,-2.019051551818848,0.0743026733398437,4.817800521850586,1.6619226074218751
1765999762865309200,7.11830908203125,-0.8384200930595398,-0.9774160385131836,5.071970462799072,1.6807014160156255
1765999762884087800,7.137087890625,-8.501352310180664,-6.412913799285889,4.502091407775879,1.699480224609375
1765999762902866700,7.15586669921875,-2.528935670852661,-0.7715768814086914,-1.4992868900299072,1.7182590332031253
1765999762921645600,7.1746455078125,-2.837101936340332,5.50727653503418,0.0899382829666137,1.7370378417968757
1765999762940424200,7.193424072265625,-1.2329132556915283,-2.2709221839904785,1.879103422164917,1.7558164062500001
1765999762959203000,7.212203125,-0.7006080150604248,-3.8729805946350098,-2.860528945922852,1.7745954589843755
1765999762977982000,7.23098193359375,-0.2079405784606933,1.7534427642822266,-5.856151103973389,1.793374267578125
1765999762996760600,7.249760498046875,-2.132033348083496,-0.4287919998168945,-3.115781784057617,1.8121528320312503
1765999763024928800,7.2779287109375,-2.626768112182617,-2.84985876083374,-0.5010014772415161,1.8403210449218754
1765999763043707600,7.296707763671875,-2.2687554359436035,-1.7576165199279783,-1.5009663105010986,1.85910009765625
1765999763062486500,7.315486572265625,-2.6931471824646,-2.020668029785156,-1.255627989768982,1.8778789062500003
1765999763081265200,7.33426513671875,-2.8565714359283447,-2.4228410720825195,-1.023248314857483,1.8966574707031256
1765999763100044000,7.3530439453125,-2.894372701644897,-2.59897518157959,-1.7958475351333618,1.915436279296875
1765999763118822700,7.37182275390625,-3.0991930961608887,-2.687403678894043,-2.166454076766968,1.9342150878906255
1765999763137601500,7.3906015625,-3.2105884552001958,-2.654305458068848,-2.100951910018921,1.952993896484375
1765999763156380400,7.40938037109375,-3.0468173027038574,-2.6566481590271,-1.6611775159835815,1.9717727050781253
1765999763184548600,7.437548583984375,-2.882042407989502,-2.239509105682373,-0.8386052250862122,1.9999409179687504
1765999763203327200,7.4563271484375,-2.6414542198181152,-1.88169527053833,-0.3873947858810425,2.0187194824218757
1765999763222106000,7.475106201171875,-2.600222587585449,-1.646979808807373,-0.285991907119751,2.0374985351562502
1765999763240885000,7.493885009765625,-2.5235602855682373,-1.4999723434448242,-0.4866838455200195,2.0562773437500006
1765999763259663600,7.51266357421875,-2.3396482467651367,-1.2997751235961914,-0.7477251291275024,2.075055908203125
