time,seconds_elapsed,z,y,x,t
1765999791843433000,36.096432861328125,-0.1009454056620597,0.7401390671730042,-0.7462477087974548,30.609530761718755
1765999791862211800,36.1152119140625,0.7177661061286926,0.0239000841975212,-0.3137554228305816,30.62830981445313
1765999791880990700,36.13399072265625,1.215773582458496,-0.5794816017150879,-0.2642753720283508,30.64708862304688
1765999791899769600,36.15276953125,1.0905463695526123,-0.6701950430870056,-0.1077412739396095,30.66586743164063
1765999791918548500,36.171548583984375,0.9447023868560792,-0.5568795800209045,0.058719377964735,30.684646484375005
1765999791937327400,36.190327392578126,0.7211259007453918,-0.3235292732715606,0.1306487023830413,30.703425292968756
1765999791956106200,36.20910620117188,0.6575959324836731,-0.2642753720283508,0.0958294123411178,30.722204101562507
1765999791974885400,36.22788549804688,0.623845636844635,-0.1535561382770538,-0.0074067353270947,30.74098339843751
1765999791993664300,36.24666430664063,0.5129737257957458,0.2010508775711059,-0.0912479236721992,30.75976220703126
1765999792012443100,36.265443115234376,0.3599520623683929,0.6468294262886047,-0.1107956022024154,30.778541015625006
1765999792031222000,36.28422192382813,0.2499964088201522,0.9220240116119384,-0.0797942131757736,30.797319824218757
1765999792050001000,36.3030009765625,0.1398880332708358,0.9317978620529176,-0.0507781356573104,30.81609887695313
1765999792068779800,36.32177978515625,0.1266017258167266,0.677678108215332,-0.0397825688123703,30.834877685546882
1765999792096948200,36.3499482421875,0.1215620934963226,0.2413679510354995,-0.0310777463018894,30.86304614257813
1765999792115727000,36.36872705078125,0.0597120337188243,0.1002581790089607,-0.0400880016386508,30.881824951171883
1765999792134506000,36.387506103515626,0.0077885258942842,0.0069485870189964,-0.0736855641007423,30.900604003906256
1765999792153285000,36.40628515625,-0.037720900028944,-0.0707839578390121,-0.117667831480503,30.91938305664063
1765999792172064000,36.42506396484375,-0.0713184624910354,-0.1230128929018974,-0.1634826809167862,30.93816186523438
1765999792190843000,36.4438427734375,-0.1238528341054916,-0.1931096315383911,-0.2048687785863876,30.956940673828132
1765999792209621800,36.46262182617188,-0.1672242283821106,-0.2683987021446228,-0.2323576956987381,30.975719726562513
1765999792228400600,36.48140063476563,-0.2046397030353546,-0.308563083410263,-0.2409097999334335,30.994498535156257
1765999792247179500,36.50017944335937,-0.2327394783496856,-0.3418551981449127,-0.2496146261692047,31.01327734375
1765999792265958400,36.51895849609375,-0.2218966335058212,-0.4316523373126983,-0.252210795879364,31.032056396484382
1765999792284737300,36.5377373046875,-0.2064722925424575,-0.5909352898597717,-0.252210795879364,31.050835205078126
1765999792303516400,36.55651635742188,-0.2211330533027649,-0.7030289769172668,-0.251752644777298,31.069614257812507
1765999792322295300,36.57529541015625,-0.2174678593873977,-0.6917279958724976,-0.2286925017833709,31.08839331054688
1765999792341074200,36.59407421875,-0.208610326051712,-0.55672687292099,-0.1700494885444641,31.107172119140632
1765999792359853000,36.61285302734375,-0.2168570011854171,-0.358806699514389,-0.0804050788283348,31.125950927734383
1765999792378632000,36.6316318359375,-0.1962403059005737,-0.2282343506813049,-0.0019089524867013,31.144729736328127
1765999792397410800,36.65041088867188,-0.1553123742341995,-0.2039524763822555,0.0747545808553695,31.163508789062508
1765999792416190000,36.66918994140625,-0.1614210158586502,-0.2457967102527618,0.1211803033947944,31.18228784179688
1765999792434968800,36.68796875,-0.1930332630872726,-0.248087465763092,0.1512653976678848,31.201066650390633
1765999792453747700,36.70674780273438,-0.2194531708955764,-0.1278998106718063,0.1836412250995636,31.219845703125007
1765999792472526600,36.72552661132813,-0.2319758981466293,0.0486401095986366,0.2456440031528473,31.238624511718758
1765999792491305500,36.74430541992187,-0.1831067204475402,0.3077994883060455,0.3432296514511108,31.257403320312502
1765999792510084400,36.76308447265625,-0.0803287178277969,0.3299433290958404,0.4635699987411499,31.276182373046883
1765999792528863200,36.78186328125,0.0030543238390237,0.1784488707780838,0.5364156365394592,31.294961181640627
1765999792547642000,36.80064208984375,0.0725401937961578,-0.0507781356573104,0.5631409883499146,31.313739990234378
1765999792566421200,36.81942114257812,0.2015853822231292,-0.2161697745323181,0.5643627047538757,31.33251904296875
1765999792585200000,36.8382001953125,0.3543015718460083,-0.2841284871101379,0.5518399477005005,31.351298095703132
1765999792603979000,36.85697900390625,0.472198486328125,-0.4223366379737854,0.5364156365394592,31.370076904296877
1765999792622758000,36.8757578125,0.5430588126182556,-0.5154935121536255,0.5161044001579285,31.388855712890628
1765999792641536800,36.89453686523437,0.6235402226448059,-0.6219366788864136,0.4899899065494537,31.407634765625
1765999792660315600,36.91331567382812,0.7637336850166321,-0.7163153290748596,0.4626537263393402,31.426413574218753
1765999792679094500,36.932094482421874,0.9272927641868592,-0.9223294854164124,0.4388299882411957,31.445192382812504
1765999792697873700,36.95087377929688,1.0519092082977295,-1.1677443981170654,0.4040106832981109,31.463971679687507
1765999792716652500,36.96965258789062,1.1643083095550537,-1.4493530988693235,0.3317759335041046,31.48275048828125
1765999792735431400,36.98843139648437,1.195920467376709,-1.5997785329818726,0.1795178800821304,31.501529296875002
1765999792754210300,37.00721020507813,1.0798561573028564,-1.6355141401290894,-0.1575267612934112,31.52030810546876
1765999792772989200,37.0259892578125,0.8571959733963013,-1.4296526908874512,-0.6743183732032776,31.539087158203127
1765999792791768000,37.04476806640625,0.6033816933631897,-1.1068105697631836,-1.1982876062393188,31.55786596679688
1765999792810547000,37.063546875,0.3327685892581939,-0.775263786315918,-1.675220251083374,31.57664477539063
1765999792829325800,37.08232592773437,0.0661261156201362,-0.7317396402359009,-2.151083946228028,31.595423828124996
1765999792848105000,37.10110498046875,-0.1559232324361801,-1.040684461593628,-2.6150357723236084,31.614202880859377
1765999792866883800,37.1198837890625,-0.3260490894317627,-1.5325833559036257,-3.030881881713867,31.63298168945313
1765999792885662700,37.13866284179687,-0.4799869954586029,-1.79647696018219,-3.3535711765289307,31.651760742187502
1765999792904441600,37.15744165039062,-0.6053670048713684,-1.7159955501556396,-3.5588219165802,31.670539550781253
1765999792923220500,37.176220458984375,-0.7681624889373779,-1.201341986656189,-3.5620288848876958,31.689318359375005
1765999792941999400,37.194999267578126,-1.0412189960479736,-1.034881353378296,-2.221791505813598,31.708097167968756
1765999792960778200,37.2137783203125,-1.17194402217865,1.7373757362365725,-2.697960615158081,31.72687622070313
1765999792979557000,37.23255712890625,-0.8949168920516968,2.147724151611328,-2.6103014945983887,31.74565502929688
1765999792998336300,37.25133618164063,-0.7281508445739746,1.121776819229126,-2.2382848262786865,31.76443408203126
1765999793017115100,37.270115234375,-0.5994110703468323,0.143782302737236,-1.8270201683044436,31.783213134765628
1765999793035894000,37.28889404296875,-0.2527453005313873,-0.3238346874713897,-1.2005783319473269,31.80199194335938
1765999793054673000,37.3076728515625,-0.0051923505961894,-0.3956113159656524,-0.4930442273616791,31.82077075195313
1765999793073451800,37.32645166015625,0.2333503514528274,0.2389244884252548,0.3575849831104278,31.83954956054688
1765999793092230700,37.34523071289063,0.3969093859195709,1.0151809453964231,1.2937352657318115,31.858328613281262
1765999793111009500,37.36400952148438,0.5384773015975952,1.505858063697815,2.099618673324585,31.877107421875007
1765999793129788400,37.38278833007813,0.6982184648513794,1.6868267059326172,2.703152894973755,31.895886230468758
1765999793148567600,37.40156762695312,0.7922916412353516,1.623602271080017,3.160996198654175,31.914665527343747
1765999793167346400,37.42034643554688,0.8663589954376221,1.4971531629562378,3.4905576705932617,31.933444335937512
1765999793186125300,37.43912524414063,0.8738420605659485,1.342604398727417,3.684507369995117,31.952223144531256
1765999793204904200,37.457904296875,0.8045089244842529,1.2247074842453003,3.7611708641052246,31.97100219726563
1765999793223683000,37.47668310546875,0.6801979541778564,1.1857649087905884,3.752771377563477,31.98978100585938
1765999793242462000,37.4954619140625,0.535728394985199,1.1225403547286987,3.6582400798797607,32.00855981445313
1765999793261240800,37.51424072265625,0.3866774141788482,0.9765437245368958,3.488419771194458,32.02733862304687
1765999793280019700,37.53301977539063,0.2275471240282058,0.8097776174545288,3.250029802322388,32.046117675781254
1765999793298798600,37.55179858398437,0.0615446269512176,0.6550761461257935,2.9250495433807373,32.064896484375
1765999793317577700,37.57057763671875,-0.0426078177988529,0.5110647678375244,2.505079984664917,32.08367553710938
1765999793336356600,37.589356689453126,-0.1221729591488838,0.2543488144874573,1.98920476436615,32.10245458984375
1765999793355135500,37.60813549804688,-0.1951712965965271,-0.1929569095373153,1.4601958990097046,32.121233398437504
1765999793373914400,37.62691430664062,-0.2944368124008178,-0.7108175158500671,0.9078214168548584,32.14001220703125
1765999793392693200,37.645693359375,-0.4604393243789673,-1.0217477083206177,0.3804923892021179,32.15879125976563
1765999793411472100,37.66447216796875,-0.5849030017852783,-1.112308382987976,-0.0054214247502386,32.17757006835938
1765999793430251000,37.6832509765625,-0.6478220820426941,-0.343993216753006,-0.4916698038578033,32.196348876953124
1765999793449030000,37.70202978515625,-0.7250964641571045,1.227914571762085,-1.1184170246124268,32.215127685546875
1765999793467809000,37.72080908203125,-0.4176788032054901,2.226067543029785,-1.114904522895813,32.23390698242188
1765999793486588000,37.739587890625,-0.1211039423942565,2.5980842113494877,-1.3421462774276731,32.25268579101563
1765999793505366800,37.75836669921875,0.0016798780998215,1.611995816230774,-1.4899755716323853,32.271464599609374
1765999793524145700,37.77714575195313,0.1395826041698455,-0.1514181047677993,-1.435761332511902,32.290243652343754
1765999793542924500,37.79592456054687,0.1389717310667038,-1.5379284620285034,-1.0527490377426147,32.3090224609375
1765999793561703400,37.814703369140624,-0.0395534932613372,-1.4284309148788452,-0.7028762698173523,32.32780126953125
1765999793580482600,37.83348266601563,-0.1165224537253379,-0.4182133078575134,-0.6822596192359924,32.34658056640625
1765999793599261400,37.85226147460938,-0.0051923505961894,0.2969566285610199,-0.7251728773117065,32.365359375000004
1765999793618040300,37.87104028320312,0.1449276655912399,0.3841575980186462,-0.7134137153625488,32.38413818359375
1765999793636819200,37.88981909179687,0.1001818254590034,-0.0237473677843809,-0.7150935530662537,32.4029169921875
1765999793655598000,37.90859814453125,0.0398589260876178,-0.3701077103614807,-0.7375428676605225,32.42169604492187
1765999793674377000,37.927376953125,-0.0288633611053228,-0.3612501621246338,-0.6662244200706482,32.440474853515624
1765999793693156000,37.94615600585937,-0.0444404110312461,-0.085597425699234,-0.5281689763069153,32.45925390625
1765999793711935000,37.96493505859375,-0.0688750073313713,0.0943022519350051,-0.3858374655246734,32.47803295898438
1765999793730713900,37.9837138671875,-0.0375681854784488,-0.0104610593989491,-0.2635118067264557,32.49681176757812
1765999793749492700,38.00249267578125,0.0462730079889297,-0.3381900191307068,-0.1378263682126999,32.515590576171874
1765999793768271600,38.02127172851562,0.1866191923618316,-0.5733729600906372,0.028176138177514,32.53436962890625
1765999793787050500,38.04005053710937,0.3740019500255584,-0.6756927967071533,0.2398407906293869,32.5531484375
1765999793805829600,38.05882958984375,0.5858193039894104,-0.8378773927688599,0.4537961781024933,32.57192749023437
1765999793824608500,38.0776083984375,0.8280271887779236,-0.969518780708313,0.576274573802948,32.590706298828124
1765999793843387400,38.09638745117188,1.0118975639343262,-1.0843613147735596,0.6172025203704834,32.609485351562505
