time,seconds_elapsed,z,y,x,t
1765999774670141400,18.92314135742188,1.2877029180526731,0.4774671792984009,-1.597182273864746,13.436239257812506
1765999774688920300,18.94192041015625,0.6360629796981812,0.1169042438268661,-1.2219586372375488,13.455018310546876
1765999774707699200,18.96069921875,0.1867718994617462,-0.9026290774345398,-0.479299783706665,13.473797119140627
1765999774726478000,18.97947802734375,0.2835939824581146,-0.7430406212806702,-0.0822376683354377,13.492575927734375
1765999774745256700,18.998256591796878,0.0911715701222419,0.8930079340934753,0.3436878025531769,13.511354492187504
1765999774764035600,19.01703564453125,-0.1713475733995437,2.161621332168579,0.7650317549705505,13.530133544921878
1765999774782814500,19.035814453125,-0.2806923687458038,2.692920923233032,1.2048543691635132,13.548912353515625
1765999774801593300,19.05459326171875,-0.3764454126358032,2.544328212738037,1.5586978197097778,13.567691162109377
1765999774820372200,19.073372314453124,-0.4515817761421203,2.1984260082244877,1.84855318069458,13.58647021484375
1765999774839151000,19.092151123046875,-0.407446801662445,1.9696571826934812,2.1342852115631104,13.605249023437501
1765999774857929700,19.1109296875,-0.3410152494907379,1.922162413597107,2.345491647720337,13.624027587890627
1765999774876708600,19.12970849609375,-0.3323104381561279,1.973627686500549,2.4791183471679688,13.642806396484374
1765999774895487500,19.148487548828125,-0.3597993552684784,2.0029492378234863,2.5783839225769043,13.661585449218752
1765999774923655700,19.17665576171875,-0.3639226853847503,2.009210586547852,2.6342780590057373,13.689753662109375
1765999774942434600,19.1954345703125,-0.3254382014274597,1.915595531463623,2.608163595199585,13.708532470703126
1765999774961213400,19.21421337890625,-0.2689332067966461,1.7173699140548706,2.5481460094451904,13.727311279296877
1765999774979992300,19.232992431640625,-0.1875354945659637,1.3960551023483276,2.4591126441955566,13.746090332031251
1765999774998771200,19.251771240234376,-0.1137735620141029,1.0148755311965942,2.340604782104492,13.764869140625002
1765999775017550000,19.270550048828124,-0.0636826530098915,0.6062069535255432,2.200869560241699,13.78364794921875
1765999775036329000,19.289328857421875,-0.0791069865226745,0.2642753720283508,2.02402400970459,13.802426757812501
1765999775055107600,19.308107666015623,-0.1256854236125946,0.0568867810070514,1.7969350814819336,13.821205566406249
1765999775073886500,19.32688647460937,-0.1881463527679443,-0.0397825688123703,1.5261693000793457,13.839984374999997
1765999775092665300,19.345665283203125,-0.2933678030967712,-0.0747545808553695,1.1961495876312256,13.858763183593751
1765999775111444200,19.3644443359375,-0.3953822255134582,-0.1034652218222618,0.8334486484527588,13.877542236328125
1765999775130223000,19.38322314453125,-0.5137372612953186,-0.0687986463308334,0.4084394574165344,13.896321044921876
1765999775149002000,19.402001953125,-0.6533198952674866,0.0261908266693353,-0.0758235901594162,13.915099853515628
1765999775167780900,19.42078076171875,-0.9199623465538024,0.7311288118362427,-1.0469459295272827,13.933878662109375
1765999775186559700,19.439559814453126,-1.199738383293152,1.1451424360275269,-1.7508147954940796,13.952657714843753
1765999775205338400,19.45833837890625,-0.8857539296150208,1.2213478088378906,-1.811290383338928,13.971436279296878
1765999775224117200,19.4771171875,-0.1007926911115646,1.1810307502746582,-1.829921841621399,13.990215087890626
1765999775242896100,19.495896240234377,-0.0671951249241828,0.4284452795982361,-1.338481068611145,14.008994140625003
1765999775261675000,19.514675048828124,-0.4079049527645111,0.3279580175876617,-0.8418480157852173,14.02777294921875
1765999775280454000,19.533453857421875,-0.2354883700609207,0.1833357959985733,-0.591088056564331,14.046551757812502
1765999775299232800,19.552232666015627,-0.167071521282196,-0.4392881393432617,-0.529543399810791,14.065330566406253
1765999775318011600,19.57101171875,-0.131946787238121,-0.7975603342056274,-0.5642099976539612,14.084109619140627
1765999775336790500,19.58979052734375,-0.0902552679181099,-1.1297180652618408,-0.7812197208404541,14.102888427734378
1765999775355569200,19.608569091796877,-0.1302669197320938,-0.8748347163200378,-0.9542471170425416,14.121666992187503
1765999775374348000,19.62734814453125,-0.1678351014852523,0.1850156635046005,-1.0228166580200195,14.140446044921877
1765999775393127000,19.646126953125,-0.1449276655912399,1.1940115690231323,-0.8731548190116882,14.159224853515624
1765999775411905800,19.66490576171875,-0.1727220118045807,1.394375205039978,-0.6379718780517578,14.178003662109376
1765999775430684700,19.6836845703125,-0.1733328849077224,0.8204677700996399,-0.4272235631942749,14.196782470703127
1765999775449463600,19.702463623046874,-0.0566577091813087,-0.1935677826404571,-0.303370714187622,14.2155615234375
1765999775468242400,19.721242431640626,0.0082466742023825,-0.8901063203811646,-0.1987601220607757,14.234340332031252
1765999775487021300,19.740021240234373,0.1056796088814735,-0.9634101390838624,-0.0003817904798779,14.253119140625
1765999775505800200,19.75880029296875,0.2620609998703003,-0.8661298751831055,0.266107976436615,14.271898193359377
1765999775533968400,19.78696850585937,0.736244797706604,-1.0451133251190186,0.6285035014152527,14.300066406249996
1765999775552747300,19.805747314453125,1.001665472984314,-1.305036187171936,0.845360517501831,14.318845214843751
1765999775571526100,19.82452612304688,1.328783631324768,-1.398803949356079,1.0651191473007202,14.337624023437506
1765999775590305000,19.843304931640624,1.5839723348617554,-1.5915318727493286,1.2486839294433594,14.35640283203125
1765999775609084000,19.862083984375,1.599854826927185,-1.6773582696914673,1.3888773918151855,14.375181884765627
1765999775627862500,19.880862548828127,1.2438733577728271,-1.3375648260116575,1.473634958267212,14.393960449218753
1765999775646641400,19.899641357421874,0.7389936447143555,-0.9551634192466736,1.5293763875961304,14.4127392578125
1765999775665420300,19.918420166015625,0.2376264035701751,-0.5335140228271484,1.6054290533065796,14.431518066406252
1765999775684199200,19.93719921875,-0.1742491722106933,-0.1558468788862228,1.5272382497787476,14.450297119140625
1765999775702978000,19.95597802734375,-0.5054906010627747,0.2697731554508209,1.0104466676712036,14.469075927734377
1765999775721757000,19.9747568359375,-1.063210129737854,0.4075231552124023,0.4881573021411896,14.487854736328128
1765999775740535800,19.993535888671875,-1.7223331928253174,-0.0886517539620399,-0.1954003721475601,14.506633789062501
1765999775759314700,20.012314697265627,-2.172540664672852,-1.0041853189468384,-1.032437801361084,14.525412597656253
1765999775778093600,20.03109350585937,-2.43857216835022,-2.1900265216827397,-1.9383503198623655,14.544191406249997
1765999775796872400,20.04987255859375,-2.5633413791656494,-3.440772294998169,-2.5457026958465576,14.562970458984378
1765999775815651000,20.06865112304688,-2.497673273086548,-4.731987476348877,-3.114112377166748,14.581749023437506
1765999775834430000,20.087429931640624,-1.8266384601593015,-4.123871803283691,-3.66801381111145,14.60052783203125
1765999775853208800,20.106208740234376,-0.7157807946205139,-2.4843106269836426,-3.905334949493408,14.619306640625002
1765999775871987700,20.12498779296875,0.0807868689298629,-0.927521824836731,-3.748037099838257,14.638085693359375
1765999775890766600,20.1437666015625,0.8249728679656982,-0.0185550171881914,-3.624948024749756,14.656864501953127
1765999775909545500,20.16254541015625,1.4291181564331057,-0.0739909932017326,-3.3758678436279297,14.675643310546874
1765999775928324400,20.181324462890625,1.524565815925598,-1.0667989253997805,-1.909792423248291,14.694422363281252
1765999775947103200,20.200103271484377,0.1881463527679443,0.1285106837749481,-1.1995093822479248,14.713201171875003
1765999775965882000,20.218882080078124,1.2119556665420532,0.1697440445423126,-1.7027091979980469,14.73197998046875
1765999775984661000,20.23766088867188,2.513861179351806,-0.7934370040893555,-1.5040254592895508,14.750758789062505
1765999776003439600,20.256439697265623,2.160170555114746,-2.10145115852356,-1.1898882389068604,14.76953759765625
1765999776022218500,20.27521850585937,1.8031201362609863,-3.4309983253479004,-0.3285689055919647,14.788316406249997
1765999776040997400,20.29399731445313,1.7336342334747314,-3.0650904178619385,0.4125627875328064,14.807095214843756
1765999776059776300,20.3127763671875,1.3935352563858032,-0.9026290774345398,0.9470694661140442,14.825874267578126
1765999776078555100,20.33155517578125,0.9999856352806092,1.250363826751709,1.3305398225784302,14.844653076171877
1765999776097334000,20.350333984375,0.734717607498169,2.420933485031128,1.6691116094589231,14.863431884765625
1765999776116113000,20.36911279296875,0.5273290276527405,2.586477756500244,1.9365177154541016,14.882210693359376
1765999776134891800,20.387891845703123,0.4297433793544769,1.8435134887695312,2.085110664367676,14.90098974609375
1765999776153670400,20.40667041015625,0.360410213470459,0.9907463192939758,2.2830307483673096,14.919768310546875
1765999776172449300,20.42544921875,0.1971566081047058,0.4957931339740753,2.4811036586761475,14.938547119140626
1765999776191228200,20.444228271484373,-0.0062613640911877,0.653701663017273,2.5400521755218506,14.957326171875
1765999776210007000,20.463007080078125,-0.1797469556331634,1.1572070121765137,2.536692380905152,14.976104980468751
1765999776228786000,20.48178588867188,-0.2073885947465896,1.6889647245407104,2.502178430557251,14.994883789062506
1765999776247564800,20.500564697265624,-0.1206457912921905,1.9488877058029173,2.451171398162842,15.01366259765625
1765999776266343700,20.51934375,-0.0261144693940877,1.813886642456055,2.3888630867004395,15.032441650390627
1765999776285122600,20.53812255859375,0.0239764433354139,1.3743693828582764,2.300898551940918,15.051220458984375
1765999776303901400,20.5569013671875,0.0274889152497053,0.8644500374794006,2.186055898666382,15.069999267578126
1765999776322680300,20.575680419921877,-0.0369573198258876,0.4840339720249176,2.0475423336029053,15.088778320312503
1765999776341459000,20.594458984375,-0.1769980639219284,0.3113119602203369,1.87695837020874,15.107556884765625
1765999776360237800,20.61323779296875,-0.347123920917511,0.3484219908714294,1.6665154695510864,15.126335693359376
1765999776379016700,20.6320166015625,-0.5122101306915283,0.4664716124534607,1.409494161605835,15.145114501953127
1765999776397795600,20.650795654296875,-0.6757691502571106,0.5341249108314514,1.1240675449371338,15.163893554687501
1765999776416574500,20.669574462890623,-0.8176425099372864,0.5832995176315308,0.8137482404708862,15.182672363281249
1765999776435353300,20.68835327148437,-0.9610430002212524,0.5978075265884399,0.4704422354698181,15.201451171874997
1765999776454132200,20.70713232421875,-1.1307107210159302,0.6703477501869202,0.114918939769268,15.220230224609377
1765999776472911000,20.7259111328125,-1.2666281461715698,0.7135664224624634,-0.231899544596672,15.239009033203125
1765999776491690000,20.74468994140625,-1.37719464302063,1.320460557937622,-0.9450841546058656,15.257787841796876
1765999776510468900,20.76346875,-1.2655590772628784,1.756312608718872,-1.2514328956604004,15.276566650390627
1765999776529247500,20.78224755859375,-0.6632464528083801,1.7126357555389404,-1.201341986656189,15.295345458984375
1765999776548026400,20.8010263671875,-0.065515249967575,0.835586667060852,-1.396971344947815,15.314124267578126
1765999776566805200,20.81980517578125,-0.0207694023847579,-0.046807512640953,-1.179198145866394,15.332903076171878
1765999776585584000,20.838584228515625,-0.2069304436445236,-0.5652790069580078,-0.7961859107017517,15.351682128906251
1765999776604363000,20.857363037109376,-0.2240346521139145,-0.4421897530555725,-0.589560866355896,15.370460937500003
1765999776623142000,20.876141845703124,-0.0151189034804701,-0.3100902438163757,-0.4938078224658966,15.38923974609375
1765999776641920800,20.894920654296875,0.1233946830034256,-0.5539780259132385,-0.4383718371391296,15.408018554687501
1765999776660699600,20.91369970703125,0.0859792158007621,-0.9055306911468506,-0.441884309053421,15.426797607421875
1765999776679478500,20.932478515625,-0.1041524484753608,-0.8971312642097473,-0.464944452047348,15.445576416015626
