time,seconds_elapsed,z,y,x,t
1765999779616023600,23.8690234375,2.892456293106079,-0.0684499740600586,1.881913423538208,18.431415771484374
1765999779634802400,23.88780249023437,2.9635040760040283,-0.0705318450927734,1.1084333658218384,18.450194824218745
1765999779653581300,23.90658129882813,3.5412137508392334,0.1789264678955078,-0.3443818092346191,18.468973632812503
1765999779672360200,23.925360107421877,4.284554481506348,0.3687057495117187,-1.5327579975128174,18.48775244140625
1765999779691139000,23.94413916015625,5.265316009521484,0.3864011764526367,-2.3677971363067627,18.506531494140624
1765999779709918000,23.96291796875,5.816932678222656,1.0690555572509766,-3.3541598320007324,18.525310302734372
1765999779728696800,23.98169677734375,6.729009628295898,2.1499929428100586,-3.879728078842163,18.544089111328123
1765999779747475700,24.000475830078123,6.390484809875488,3.010140419006348,-3.889610290527344,18.562868164062497
1765999779766254600,24.019254638671875,4.644651889801025,3.935404777526856,-3.8043060302734375,18.581646972656248
1765999779785033500,24.038033447265622,2.276235342025757,4.212971687316895,-2.2275280952453613,18.600425781249996
1765999779803812400,24.056812255859374,-0.680300235748291,4.122836112976074,-1.0006933212280271,18.619204589843747
1765999779822591200,24.07559130859375,-3.127302646636963,2.912541389465332,-1.1494958400726318,18.637983642578124
1765999779841370000,24.0943701171875,-4.140319347381592,1.2200450897216797,-0.4285899996757507,18.656762451171872
1765999779860149000,24.11314892578125,-3.846701622009277,0.5609016418457031,1.346890211105347,18.675541259765623
1765999779878928000,24.131927978515623,-2.8058133125305176,1.5467853546142578,3.053363561630249,18.694320312499997
1765999779897706800,24.15070678710937,-1.4589319229125977,1.596811294555664,5.31697940826416,18.713099121093745
1765999779925875000,24.178875,-0.5993969440460205,0.2429647445678711,5.647800922393799,18.741267333984375
1765999779944653800,24.19765380859375,-0.1792514324188232,0.8017969131469727,4.1635518074035645,18.760046142578123
1765999779963432700,24.2164326171875,0.0885961055755615,0.9310779571533204,2.9134774208068848,18.778824951171874
1765999779982211600,24.235211669921878,-7.546181678771973,-4.653439998626709,3.50223970413208,18.79760400390625
1765999780000990500,24.253990478515625,-5.217320919036865,-0.2582292556762695,-4.95649003982544,18.8163828125
1765999780019769300,24.272769287109377,-2.625112295150757,5.344144821166992,-1.3526581525802612,18.83516162109375
1765999780038548200,24.29154833984375,-2.3960094451904297,-1.099085807800293,-1.329409122467041,18.853940673828124
1765999780057327000,24.3103271484375,-1.95215904712677,-3.076763153076172,-5.972067356109619,18.872719482421875
1765999780076106000,24.32910595703125,-0.5534217953681946,-0.5619029998779297,-5.6688079833984375,18.891498291015623
1765999780094884900,24.347884765625,-1.76445472240448,-1.6934814453125,-2.3198082447052,18.910277099609374
1765999780113663700,24.36666381835937,-2.9346554279327397,-3.1361751556396484,0.1639129519462585,18.929056152343744
1765999780132442600,24.385442626953125,-2.8932671546936035,-2.9173407554626465,0.5557479858398438,18.9478349609375
1765999780151221500,24.40422143554688,-3.116454601287842,-3.4909143447875977,-0.3029640913009643,18.966613769531254
1765999780170000400,24.42300048828125,-3.549067497253418,-4.595597267150879,-0.4461507201194763,18.985392822265624
1765999780188779300,24.441779296875,-3.781754970550537,-4.711215019226074,-0.8385969400405884,19.004171630859375
1765999780207558100,24.46055810546875,-3.894608020782471,-4.537850856781006,-1.3076099157333374,19.022950439453123
1765999780226337000,24.4793369140625,-4.030216217041016,-4.823616981506348,-0.7457455396652222,19.041729248046874
1765999780245116000,24.498115966796878,-4.048714637756348,-4.94187068939209,-0.0646193027496337,19.06050830078125
1765999780263894800,24.516894775390625,-4.195633888244629,-4.662731170654297,0.0704360008239746,19.079287109375
1765999780282673700,24.535673583984376,-4.197160720825195,-4.175887584686279,0.1184523105621337,19.09806591796875
1765999780301452500,24.55445263671875,-4.105119705200195,-3.6069068908691406,0.0279346108436584,19.116844970703124
1765999780329620700,24.582620849609373,-3.879186391830444,-2.212527275085449,-0.6185394525527954,19.145013183593747
1765999780348399600,24.601399658203125,-2.963121175765991,-0.9820060729980468,-0.9933100342750548,19.163791992187498
1765999780367178500,24.62017846679688,-2.2945635318756104,0.2115592956542968,-0.293332576751709,19.182570800781253
1765999780385957400,24.638957275390624,-2.586757183074951,0.5448923110961914,-0.307204395532608,19.201349609374997
1765999780404736300,24.657736328125,-2.6769540309906006,0.4884920120239258,-0.6331464052200317,19.220128662109374
1765999780423515100,24.67651513671875,-2.21238374710083,1.2303962707519531,-1.1790072917938232,19.238907470703122
1765999780442294000,24.6952939453125,-1.5767221450805664,2.192241668701172,-1.164955496788025,19.257686279296873
1765999780461073000,24.714072998046877,-0.9765386581420898,2.272871971130371,-0.8638914823532104,19.27646533203125
1765999780479851800,24.732851806640625,-0.4103202819824219,1.6439752578735352,-0.2043931484222412,19.295244140624998
1765999780498630700,24.751630615234376,-0.3989748954772949,1.0354499816894531,0.8339695334434509,19.31402294921875
1765999780517409500,24.770409423828124,-0.3128561973571777,0.6317577362060547,1.7848830223083496,19.332801757812497
1765999780536188400,24.7891884765625,-0.6290707588195801,3.3293418884277344,3.4734883308410645,19.351580810546874
1765999780564356900,24.81735693359375,4.4028000831604,5.476156234741211,3.189884662628174,19.379749267578124
1765999780583135700,24.8361357421875,3.158560037612915,7.104368209838867,-2.751962661743164,19.398528076171875
1765999780611304000,24.864303955078125,3.410886764526367,4.854587554931641,-4.317505836486816,19.426696289062498
1765999780630082800,24.88308276367188,1.0792803764343262,1.6944694519042969,-4.34735107421875,19.445475097656253
1765999780648861700,24.90186181640625,-0.9716744422912598,0.1610631942749023,-3.724033832550049,19.464254150390623
1765999780677030100,24.93003002929688,-0.1405661106109619,-0.2944154739379883,0.2372519969940185,19.492422363281253
1765999780695809000,24.94880908203125,2.0400400161743164,-0.8882150650024414,2.055168867111206,19.511201416015624
1765999780714588000,24.967587890625,2.880166530609131,-0.3943634033203125,2.0948972702026367,19.529980224609375
1765999780733366800,24.98636669921875,2.4947938919067383,0.1185646057128906,2.935922622680664,19.548759033203122
1765999780752145700,25.00514575195313,1.388273000717163,0.1179924011230468,3.021700620651245,19.567538085937503
1765999780770924500,25.023924560546877,0.7543882131576538,0.1692943572998047,2.4494001865386963,19.58631689453125
1765999780789703400,25.042703369140625,1.1717147827148438,0.3938980102539062,0.843379557132721,19.605095703125
1765999780808482300,25.061482421875,1.947587251663208,0.7955989837646484,-0.4557170867919922,19.623874755859372
1765999780827261200,25.08026123046875,2.4758942127227783,0.7913522720336914,-1.1009137630462646,19.642653564453123
1765999780846040000,25.0990400390625,2.8071179389953613,0.3532953262329101,-0.6804310083389282,19.661432373046875
1765999780874208300,25.127208251953125,3.164294719696045,0.0075035095214843,0.8309192061424255,19.689600585937498
1765999780892987400,25.1459873046875,3.433200597763061,0.0527029037475585,1.214789628982544,19.708379638671875
1765999780911766300,25.164766357421875,4.4820427894592285,0.1769218444824218,0.1970036029815673,19.72715869140625
1765999780930545200,25.183545166015627,6.458392143249512,0.3078460693359375,-1.43100905418396,19.7459375
1765999780949324000,25.20232397460937,8.346052169799805,0.6688871383666992,-2.6257572174072266,19.764716308593744
1765999780968103000,25.22110302734375,8.442299842834473,2.087797164916992,-3.9667158126831055,19.783495361328125
1765999780986881800,25.2398818359375,6.3795166015625,4.283938407897949,-6.845681667327881,19.802274169921873
1765999781005660700,25.25866064453125,4.915787696838379,5.092704772949219,-5.927265644073486,19.821052978515624
1765999781024439600,25.277439453125,0.1553354263305664,5.428788185119629,-4.324662685394287,19.839831787109375
1765999781043218400,25.296218505859372,-3.483937263488769,5.081179618835449,-3.140350818634033,19.858610839843745
1765999781061997300,25.314997314453127,-4.813939094543457,2.6291704177856445,-0.7644923329353333,19.8773896484375
1765999781080776200,25.333776123046874,-5.311616897583008,-0.2856063842773437,1.6020989418029783,19.896168457031248
1765999781099555000,25.35255517578125,-6.85399341583252,-0.0924205780029296,2.17322039604187,19.914947509765625
1765999781127723300,25.38072314453125,-2.219432830810547,-1.691476345062256,4.912398338317871,19.943115478515622
1765999781146502100,25.399502197265623,-2.229458332061768,-2.4303979873657227,4.517999172210693,19.961894531249996
1765999781165281000,25.41828100585937,-2.1014208793640137,-1.2741765975952148,0.2145169973373413,19.980673339843744
1765999781184060000,25.437059814453125,-3.5030441284179688,-2.241448402404785,-2.337607383728028,19.9994521484375
1765999781202838800,25.4558388671875,0.8718291521072388,-8.800472259521484,-3.807826280593872,20.018231201171872
1765999781221617700,25.47461767578125,-3.675244092941284,-0.7901430130004883,-5.790480613708496,20.037010009765623
1765999781240396500,25.493396484375,-2.0062296390533447,2.174351692199707,-0.0430049896240234,20.055788818359375
1765999781259175400,25.51217553710937,-2.174776077270508,-2.393239021301269,2.145503282546997,20.074567871093745
1765999781277954300,25.53095434570313,-0.5962224006652832,-1.6997394561767578,-4.054172992706299,20.093346679687503
1765999781296733200,25.549733154296877,-0.221210241317749,-0.7570705413818359,-2.760801076889038,20.11212548828125
1765999781315512000,25.568511962890625,-1.3356431722640991,-2.115097522735596,-0.7387920618057251,20.130904296875
1765999781343680500,25.596680419921874,-1.6895451545715332,-1.9037885665893557,-0.956773281097412,20.159072753906248
1765999781362459400,25.61545947265625,-1.641707420349121,-2.244476795196533,0.1880481243133545,20.177851806640625
1765999781381238300,25.63423828125,-2.0340559482574463,-3.1218323707580566,0.7841706275939941,20.196630615234373
1765999781400017200,25.65301708984375,-2.1774494647979736,-3.5331249237060547,0.3068975210189819,20.215409423828124
1765999781418796000,25.671796142578124,-2.147275924682617,-3.524342536926269,-0.685268759727478,20.234188476562498
1765999781437575000,25.690574951171875,-2.1293795108795166,-3.469822883605957,-1.2131391763687134,20.25296728515625
1765999781456353800,25.709353759765627,-2.0611016750335693,-3.184117794036865,-1.3258252143859863,20.27174609375
1765999781475132700,25.72813256835937,-2.0503134727478027,-2.651685237884521,-1.6261723041534424,20.290524902343744
1765999781493911600,25.74691162109375,-2.0617597103118896,-2.3311867713928223,-1.774160861968994,20.309303955078125
1765999781512690400,25.7656904296875,-2.2291789054870605,-2.445556163787842,-1.31196928024292,20.328082763671873
1765999781531469300,25.78446923828125,-2.626927375793457,-2.4606966972351074,-0.711552619934082,20.346861572265624
1765999781559637500,25.812637451171877,-2.638756275177002,-1.8087234497070312,-0.5223239064216614,20.37502978515625
1765999781578416400,25.83141650390625,-2.0010733604431152,-1.0830154418945312,0.0241619497537612,20.393808837890624
1765999781597195300,25.8501953125,-1.8273301124572756,-0.97428560256958,0.910716474056244,20.412587646484372
1765999781615974100,25.86897412109375,-2.308964729309082,-1.4003348350524902,1.6799654960632324,20.431366455078123
1765999781634753000,25.8877529296875,-2.722501754760742,0.0216255187988281,1.9142711162567136,20.450145263671875
1765999781653532000,25.906531982421875,-1.9257316589355469,3.63979434967041,1.69203782081604,20.468924316406248
1765999781672310800,25.925310791015622,-0.7365164756774902,6.099821090698242,2.2061262130737305,20.487703124999996
1765999781691089700,25.944089599609374,2.4311087131500244,6.794123649597168,-2.032874584197998,20.506481933593747
