time,seconds_elapsed,z,y,x,t
1765999792848105000,37.10110498046875,-0.1559232324361801,-1.040684461593628,-2.6150357723236084,31.614202880859377
1765999792866883800,37.1198837890625,-0.3260490894317627,-1.5325833559036257,-3.030881881713867,31.63298168945313
1765999792885662700,37.13866284179687,-0.4799869954586029,-1.79647696018219,-3.3535711765289307,31.651760742187502
1765999792904441600,37.15744165039062,-0.6053670048713684,-1.7159955501556396,-3.5588219165802,31.670539550781253
1765999792923220500,37.176220458984375,-0.7681624889373779,-1.201341986656189,-3.5620288848876958,31.689318359375005
1765999792941999400,37.194999267578126,-1.0412189960479736,-1.034881353378296,-2.221791505813598,31.708097167968756
1765999792960778200,37.2137783203125,-1.17194402217865,1.7373757362365725,-2.697960615158081,31.72687622070313
1765999792979557000,37.23255712890625,-0.8949168920516968,2.147724151611328,-2.6103014945983887,31.74565502929688
1765999792998336300,37.25133618164063,-0.7281508445739746,1.121776819229126,-2.2382848262786865,31.76443408203126
1765999793017115100,37.270115234375,-0.5994110703468323,0.143782302737236,-1.8270201683044436,31.783213134765628
1765999793035894000,37.28889404296875,-0.2527453005313873,-0.3238346874713897,-1.2005783319473269,31.80199194335938
1765999793054673000,37.3076728515625,-0.0051923505961894,-0.3956113159656524,-0.4930442273616791,31.82077075195313
1765999793073451800,37.32645166015625,0.2333503514528274,0.2389244884252548,0.3575849831104278,31.83954956054688
1765999793092230700,37.34523071289063,0.3969093859195709,1.0151809453964231,1.2937352657318115,31.858328613281262
1765999793111009500,37.36400952148438,0.5384773015975952,1.505858063697815,2.099618673324585,31.877107421875007
1765999793129788400,37.38278833007813,0.6982184648513794,1.6868267059326172,2.703152894973755,31.895886230468758
1765999793148567600,37.40156762695312,0.7922916412353516,1.623602271080017,3.160996198654175,31.914665527343747
1765999793167346400,37.42034643554688,0.8663589954376221,1.4971531629562378,3.4905576705932617,31.933444335937512
1765999793186125300,37.43912524414063,0.8738420605659485,1.342604398727417,3.684507369995117,31.952223144531256
1765999793204904200,37.457904296875,0.8045089244842529,1.2247074842453003,3.7611708641052246,31.97100219726563
1765999793223683000,37.47668310546875,0.6801979541778564,1.1857649087905884,3.752771377563477,31.98978100585938
1765999793242462000,37.4954619140625,0.535728394985199,1.1225403547286987,3.6582400798797607,32.00855981445313
1765999793261240800,37.51424072265625,0.3866774141788482,0.9765437245368958,3.488419771194458,32.02733862304687
1765999793280019700,37.53301977539063,0.2275471240282058,0.8097776174545288,3.250029802322388,32.046117675781254
1765999793298798600,37.55179858398437,0.0615446269512176,0.6550761461257935,2.9250495433807373,32.064896484375
1765999793317577700,37.57057763671875,-0.0426078177988529,0.5110647678375244,2.505079984664917,32.08367553710938
1765999793336356600,37.589356689453126,-0.1221729591488838,0.2543488144874573,1.98920476436615,32.10245458984375
1765999793355135500,37.60813549804688,-0.1951712965965271,-0.1929569095373153,1.4601958990097046,32.121233398437504
1765999793373914400,37.62691430664062,-0.2944368124008178,-0.7108175158500671,0.9078214168548584,32.14001220703125
1765999793392693200,37.645693359375,-0.4604393243789673,-1.0217477083206177,0.3804923892021179,32.15879125976563
1765999793411472100,37.66447216796875,-0.5849030017852783,-1.112308382987976,-0.0054214247502386,32.17757006835938
1765999793430251000,37.6832509765625,-0.6478220820426941,-0.343993216753006,-0.4916698038578033,32.196348876953124
1765999793449030000,37.70202978515625,-0.7250964641571045,1.227914571762085,-1.1184170246124268,32.215127685546875
1765999793467809000,37.72080908203125,-0.4176788032054901,2.226067543029785,-1.114904522895813,32.23390698242188
1765999793486588000,37.739587890625,-0.1211039423942565,2.5980842113494877,-1.3421462774276731,32.25268579101563
1765999793505366800,37.75836669921875,0.0016798780998215,1.611995816230774,-1.4899755716323853,32.271464599609374
1765999793524145700,37.77714575195313,0.1395826041698455,-0.1514181047677993,-1.435761332511902,32.290243652343754
1765999793542924500,37.79592456054687,0.1389717310667038,-1.5379284620285034,-1.0527490377426147,32.3090224609375
1765999793561703400,37.814703369140624,-0.0395534932613372,-1.4284309148788452,-0.7028762698173523,32.32780126953125
1765999793580482600,37.83348266601563,-0.1165224537253379,-0.4182133078575134,-0.6822596192359924,32.34658056640625
1765999793599261400,37.85226147460938,-0.0051923505961894,0.2969566285610199,-0.7251728773117065,32.365359375000004
1765999793618040300,37.87104028320312,0.1449276655912399,0.3841575980186462,-0.7134137153625488,32.38413818359375
1765999793636819200,37.88981909179687,0.1001818254590034,-0.0237473677843809,-0.7150935530662537,32.4029169921875
1765999793655598000,37.90859814453125,0.0398589260876178,-0.3701077103614807,-0.7375428676605225,32.42169604492187
1765999793674377000,37.927376953125,-0.0288633611053228,-0.3612501621246338,-0.6662244200706482,32.440474853515624
1765999793693156000,37.94615600585937,-0.0444404110312461,-0.085597425699234,-0.5281689763069153,32.45925390625
1765999793711935000,37.96493505859375,-0.0688750073313713,0.0943022519350051,-0.3858374655246734,32.47803295898438
1765999793730713900,37.9837138671875,-0.0375681854784488,-0.0104610593989491,-0.2635118067264557,32.49681176757812
1765999793749492700,38.00249267578125,0.0462730079889297,-0.3381900191307068,-0.1378263682126999,32.515590576171874
1765999793768271600,38.02127172851562,0.1866191923618316,-0.5733729600906372,0.028176138177514,32.53436962890625
1765999793787050500,38.04005053710937,0.3740019500255584,-0.6756927967071533,0.2398407906293869,32.5531484375
1765999793805829600,38.05882958984375,0.5858193039894104,-0.8378773927688599,0.4537961781024933,32.57192749023437
1765999793824608500,38.0776083984375,0.8280271887779236,-0.969518780708313,0.576274573802948,32.590706298828124
1765999793843387400,38.09638745117188,1.0118975639343262,-1.0843613147735596,0.6172025203704834,32.609485351562505
1765999793862166300,38.11516625976562,1.1455241441726685,-1.0179297924041748,0.6743183732032776,32.62826416015625
1765999793880945200,38.133945068359374,1.0775654315948486,-1.007392406463623,0.7853430509567261,32.64704296875
1765999793899724000,38.15272412109375,0.8527672290802002,-1.10940682888031,0.9137773513793944,32.665822021484374
1765999793918503200,38.17150317382813,0.5157225728034973,-1.068784236907959,1.1074215173721311,32.684601074218754
1765999793937282000,38.19028198242187,0.2196058928966522,-0.7270054221153259,1.2680789232254028,32.7033798828125
1765999793956061000,38.20906103515625,0.065057098865509,-0.3791179656982422,1.4078142642974854,32.72215893554688
1765999793974839800,38.22783984375,0.0041233371011912,-0.3189477622509002,1.6367357969284058,32.74093774414062
1765999793993618700,38.24661865234375,-0.1983783394098281,-0.5359575152397156,1.803960084915161,32.759716552734375
1765999794012397600,38.2653974609375,-0.5158752799034119,-0.8380300998687744,1.7013347148895264,32.778495361328126
1765999794031176400,38.28417651367187,-0.9326378107070924,-1.3035091161727903,1.3991093635559082,32.7972744140625
1765999794049955600,38.30295556640625,-1.3173298835754397,-1.7187443971633911,0.9815833568572998,32.81605346679687
1765999794068734500,38.321734375,-1.679114580154419,-1.9688935279846191,0.5180897116661072,32.834832275390625
1765999794087513300,38.34051342773437,-2.0321943759918213,-2.113515853881836,-0.067118763923645,32.853611328125
1765999794106292200,38.35929223632812,-2.3730568885803223,-2.123900413513184,-0.7311288118362427,32.87239013671875
1765999794125071000,38.378071044921874,-2.721708059310913,-2.0454044342041016,-1.4226276874542236,32.8911689453125
1765999794143850000,38.39685009765625,-2.8706064224243164,-1.854814529418945,-2.2350778579711914,32.909947998046874
1765999794162628900,38.41562890625,-2.459036111831665,-1.2783108949661257,-3.0573017597198486,32.928726806640626
1765999794181407700,38.43440771484375,-1.5465569496154783,-0.4243219494819641,-3.7272677421569824,32.94750561523438
1765999794200187000,38.45318676757813,-0.8440623879432678,0.4169915616512298,-4.245281219482422,32.96628466796876
1765999794218965800,38.4719658203125,-0.7232639193534851,1.0098358392715454,-4.318279266357422,32.985063720703124
1765999794237744600,38.49074462890625,-0.6006327867507935,-0.1011744812130928,-2.6545891761779785,33.003842529296875
1765999794256523500,38.5095234375,-0.1765399277210235,1.8688644170761108,-3.2278859615325928,33.02262133789063
1765999794275302400,38.52830249023437,0.5204567909240723,1.9107086658477783,-3.150611400604248,33.04140039062499
1765999794294081300,38.547081298828125,0.3042106628417969,1.0289254188537598,-2.897713422775269,33.06017919921875
1765999794312860400,38.5658603515625,-0.1336266696453094,-0.211130142211914,-2.4502549171447754,33.078958251953125
1765999794331639300,38.58463940429687,0.2631300091743469,-0.0242055170238018,-1.8345032930374143,33.0977373046875
1765999794350418200,38.603418212890624,0.7104357481002808,-0.2216675579547882,-1.0829869508743286,33.11651611328125
1765999794369197000,38.622197021484375,0.6113229393959045,-0.7309760451316833,-0.3252091407775879,33.135294921875
1765999794387976000,38.640975830078126,0.7802270650863647,-0.190360739827156,0.2386190593242645,33.15407373046875
1765999794406754800,38.6597548828125,0.9001092314720154,0.5277107954025269,0.7737365961074829,33.172852783203126
1765999794425533700,38.67853369140625,0.8842267394065857,0.802752673625946,1.2175298929214478,33.19163159179688
1765999794444312800,38.69731274414063,0.7738129496574402,1.2063815593719482,1.4197261333465576,33.21041064453126
1765999794463091700,38.716091796875,0.6429351568222046,1.5199079513549805,1.4256820678710938,33.229189697265625
1765999794481870600,38.73487060546875,0.6299542784690857,1.6074143648147583,1.3870447874069214,33.247968505859376
1765999794500649500,38.7536494140625,0.5949822664260864,1.511508584022522,1.1923316717147827,33.26674731445313
1765999794519428400,38.77242846679688,0.5067123174667358,1.1541526317596436,0.8751401305198669,33.28552636718751
1765999794538207200,38.79120727539063,0.352163553237915,0.5445095896720886,0.5384009480476379,33.30430517578126
1765999794556986000,38.80998608398438,0.164322629570961,0.1246927753090858,0.1895971596240997,33.323083984375
1765999794585154600,38.838154541015626,-0.0409279391169548,0.1165988147258758,-0.3212385177612304,33.35125244140625
1765999794613323000,38.86632299804688,0.0597120337188243,0.5116755962371826,-0.4487565457820892,33.37942089843751
1765999794632102000,38.88510180664063,0.077732540667057,0.8493311405181885,-0.3276526033878326,33.39819970703125
1765999794650880800,38.903880859375,0.1514944583177566,0.5655844211578369,-0.0712421014904975,33.41697875976563
1765999794669659600,38.92265966796875,0.3828594982624054,-0.0828485339879989,0.0043524117209017,33.43575756835938
1765999794688438500,38.9414384765625,0.607046902179718,-0.5504655241966248,-0.0741437152028083,33.45453637695313
1765999794707217700,38.9602177734375,0.624456524848938,-1.0011310577392578,-0.14882193505764,33.473315673828125
1765999794725996500,38.97899658203125,0.514195442199707,-1.4415645599365234,-0.2887099683284759,33.49209448242188
1765999794744775400,38.997775390625,0.448069304227829,-1.48371422290802,-0.4689150750637054,33.51087329101563
1765999794763554300,39.01655419921875,0.4920515716075897,-1.1069633960723877,-0.5283216834068298,33.52965209960938
1765999794782333200,39.035333251953126,0.4334085583686828,-0.747469425201416,-0.5067886710166931,33.54843115234375
1765999794801112000,39.05411206054688,0.2722929716110229,-0.4559341967105865,-0.5168679356575012,33.567209960937504
1765999794819891000,39.07289086914062,0.1766926348209381,-0.1975383907556533,-0.5452731847763062,33.58598876953125
1765999794838669800,39.091669921875,0.1814268380403518,-0.1616500914096832,-0.5732202529907227,33.60476782226563
1765999794857449000,39.110448974609376,0.2009745091199875,-0.1618028134107589,-0.6000983119010925,33.623546875
