time,seconds_elapsed,z,y,x,t
1765999773484727000,17.73772705078125,-3.020390510559082,-2.5129036903381348,2.273508787155152,12.300119384765622
1765999773503505700,17.756505615234374,-2.970172643661499,-1.9133667945861816,1.634413719177246,12.318897949218748
1765999773522284500,17.775284423828126,-2.4685444831848145,-1.7457542419433594,0.6035402417182922,12.337676757812499
1765999773541063400,17.7940634765625,-1.723031520843506,-2.556222915649414,0.307102620601654,12.356455810546873
1765999773559842300,17.81284228515625,-1.5055265426635742,-3.513989925384521,0.1615964770317077,12.375234619140624
1765999773578621200,17.83162109375,-1.8369388580322263,-4.428474426269531,0.0817939043045044,12.394013427734375
1765999773597400000,17.850400146484375,-5.079518795013428,-2.821563243865967,0.6594594717025757,12.412792480468749
1765999773616178700,17.8691787109375,-1.5878071784973145,-1.529254913330078,-0.3911391496658325,12.431571044921874
1765999773634957600,17.88795751953125,2.161902666091919,0.9094743728637696,-2.9327614307403564,12.450349853515622
1765999773653736400,17.906736328125,2.259652614593506,15.16191577911377,-1.747817873954773,12.469128662109373
1765999773681905000,17.93490478515625,5.833795547485352,8.3618745803833,-1.510840654373169,12.497297119140622
1765999773710073000,17.963072998046876,1.8265249729156492,2.6736831665039062,-6.991052627563477,12.52546533203125
1765999773728852000,17.98185205078125,0.2535514831542969,-0.35736083984375,-5.9495625495910645,12.544244384765623
1765999773747630800,18.000630859375,0.963841676712036,-2.102118015289306,-1.6407217979431152,12.563023193359374
1765999773766409500,18.01940942382813,1.72199547290802,-2.4373607635498047,1.0478227138519287,12.581801757812503
1765999773785188400,18.038188232421877,0.8738973140716553,-1.35784912109375,1.173301100730896,12.60058056640625
1765999773803967200,18.05696728515625,0.3914618492126465,0.1070137023925781,-0.0037230849266052,12.619359619140624
1765999773822746000,18.07574609375,0.2516067028045654,1.127751350402832,-0.6752402782440186,12.638138427734372
1765999773850914300,18.103914306640625,1.1882377862930298,1.146164894104004,-0.7814929485321045,12.666306640624999
1765999773869693200,18.122693115234377,1.872343897819519,0.1161966323852539,-0.5736780166625977,12.68508544921875
1765999773888472000,18.14147216796875,1.870311260223389,-0.1670808792114257,-0.5495650172233582,12.703864501953124
1765999773907251000,18.1602509765625,1.391087532043457,0.1029720306396484,-0.4361482858657837,12.722643310546875
1765999773926029800,18.17902978515625,0.4123952388763428,0.2062568664550781,-0.2808519005775451,12.741422119140623
1765999773944808400,18.19780834960937,-0.2122800350189209,0.0520191192626953,-0.1095312237739563,12.760200683593744
1765999773963587300,18.21658740234375,-0.1523947715759277,-0.0637531280517578,0.1486823260784149,12.778979736328125
1765999773982366200,18.2353662109375,0.4367570877075195,-0.1914510726928711,0.2668127715587616,12.797758544921873
1765999774001145000,18.25414501953125,0.4935311079025268,-0.0854978561401367,0.5352808237075806,12.816537353515624
1765999774019924000,18.272924072265624,0.303030252456665,-0.012969970703125,0.4978768527507782,12.835316406249998
1765999774038702800,18.291702880859376,0.4574640989303589,0.0880937576293945,0.1246499419212341,12.854095214843749
1765999774057481700,18.310481689453123,0.7635005712509155,0.0679140090942382,0.489641934633255,12.872874023437497
1765999774076260400,18.32926025390625,0.7955663204193115,-0.1455621719360351,0.9280734658241272,12.891652587890622
1765999774095039200,18.348039306640626,-0.0551967620849609,-0.3131370544433594,1.3357635736465454,12.910431640625
1765999774113818000,18.366818115234373,-1.4223549365997314,0.0443334579467773,1.345617175102234,12.929210449218747
1765999774132597000,18.385596923828125,-2.181487560272217,0.49322509765625,1.145673394203186,12.947989257812498
1765999774151376000,18.4043759765625,-1.1438586711883545,0.0234441757202148,1.0439926385879517,12.966768310546872
1765999774170154800,18.42315478515625,-0.0512471199035644,-0.166691780090332,1.1024779081344604,12.985547119140623
1765999774188933400,18.44193334960937,0.5336437225341797,-0.0681896209716796,0.5839531421661377,13.004325683593745
1765999774207712300,18.46071215820313,1.0141648054122925,-0.16363525390625,-0.0515204071998596,13.023104492187503
1765999774226491100,18.4794912109375,1.7264658212661743,-0.1572189331054687,0.1116889417171478,13.041883544921873
1765999774245270000,18.49827001953125,2.127804756164551,0.0343513488769531,0.1136606335639953,13.060662353515625
1765999774264049000,18.517048828125,2.2309353351593018,0.0344448089599609,-0.8351675271987915,13.079441162109372
1765999774282827800,18.535827880859376,2.3317198753356934,0.3549041748046875,-1.7287006378173828,13.09822021484375
1765999774301606700,18.554606689453124,3.245150327682495,0.830592155456543,-1.7850501537322998,13.116999023437497
1765999774320385500,18.573385498046875,4.009428024291992,1.2255353927612305,-1.5725884437561035,13.135777832031248
1765999774339164200,18.5921640625,3.5484042167663574,1.2881040573120115,-2.204466819763184,13.154556396484374
1765999774357943000,18.61094311523437,2.966153621673584,1.147705078125,-2.288935661315918,13.173335449218744
1765999774376722000,18.629721923828125,2.3934850692749023,1.6746416091918943,-2.131789445877075,13.192114257812499
1765999774395500800,18.64850073242188,0.224898099899292,2.7405385971069336,-2.4349803924560547,13.210893066406253
1765999774414279700,18.66727978515625,-0.1852176189422607,3.4376707077026367,-3.945784330368042,13.229672119140623
1765999774433058600,18.68605859375,1.214365005493164,2.5984764099121094,-3.5456292629241943,13.248450927734375
1765999774451837400,18.70483740234375,-0.817697286605835,0.7467422485351562,-1.6479716300964355,13.267229736328122
1765999774470616300,18.7236162109375,-3.081060647964477,0.1673173904418945,-0.5258122682571411,13.286008544921874
1765999774489395000,18.74239501953125,-2.3163156509399414,0.5557632446289062,1.2234609127044678,13.304787353515625
1765999774508173800,18.761173828125,-0.9271936416625975,0.5067129135131836,2.265857458114624,13.323566162109373
1765999774526952700,18.77995263671875,-0.5334274768829346,0.8807649612426758,1.1819907426834106,13.342344970703124
1765999774545731600,18.798731689453124,-0.0053757429122924,1.667191505432129,-0.1783888936042785,13.361124023437497
1765999774564510500,18.817510498046875,-0.1446404457092285,1.6202030181884766,0.060261070728302,13.379902832031249
1765999774583289300,18.836289306640627,-0.5001637935638428,0.782099723815918,1.1763349771499634,13.398681640625
1765999774602068200,18.85506811523437,0.8373688459396362,-0.381448745727539,2.6365466117858887,13.417460449218744
1765999774620846800,18.873846923828125,-8.124638557434082,-6.45921802520752,5.925971508026123,13.436239257812499
1765999774639625700,18.89262573242188,-0.8558462858200073,0.984562873840332,-0.1788007020950317,13.455018066406254
1765999774658404600,18.911404541015624,-0.6077238917350769,5.437992095947266,0.2630476951599121,13.473796874999998
1765999774677183500,18.93018359375,-1.1112654209136963,-1.733076095581055,-1.0695980787277222,13.492575927734375
1765999774695962400,18.94896240234375,1.675552248954773,-2.709491729736328,-5.459588527679443,13.511354736328123
1765999774714741200,18.9677412109375,-0.6502805948257446,-0.7788782119750977,-3.51720666885376,13.530133544921874
1765999774733520000,18.986519775390622,-2.1770248413085938,-2.298898220062256,1.7110283374786377,13.548912109374996
1765999774752298800,19.005298828125,-2.936408042907715,-2.702433586120605,3.9910988807678223,13.567691162109373
1765999774771077600,19.02407763671875,-3.011889934539795,-2.1445116996765137,1.1865473985671997,13.586469970703124
1765999774789856500,19.0428564453125,-3.1038222312927246,-2.6112680435180664,-1.2790981531143188,13.605248779296872
1765999774808635400,19.06163549804688,-3.451535224914551,-3.650711536407471,-2.139910221099853,13.624027832031253
1765999774827414300,19.080414306640623,-3.541170835494995,-4.194992542266846,-2.270564079284668,13.642806640624997
1765999774846193200,19.09919311523437,-3.9277403354644775,-4.016952037811279,-1.8062119483947756,13.661585449218745
1765999774864972000,19.11797192382813,-4.008889198303223,-3.820920467376709,-1.1161575317382812,13.680364257812503
1765999774883750700,19.136750732421877,-3.944137096405029,-3.7254719734191895,-0.6391911506652832,13.69914306640625
1765999774911919000,19.164919189453126,-3.8335719108581534,-3.2265400886535645,-0.5147189497947693,13.7273115234375
1765999774930698000,19.183697998046878,-3.6776540279388423,-2.734656810760498,-0.649644136428833,13.746090332031251
1765999774949476600,19.2024765625,-3.56982970237732,-2.2761669158935547,-1.03069007396698,13.764868896484373
1765999774968255500,19.22125537109375,-3.403483867645264,-1.864243507385254,-1.43050217628479,13.783647705078124
1765999774987034400,19.240034423828124,-3.1660265922546387,-1.3642420768737793,-1.9404237270355225,13.802426757812498
1765999775005813200,19.258813232421875,-2.8626012802124023,-0.6296310424804688,-2.147709846496582,13.821205566406249
1765999775024592100,19.277592041015627,-2.498776912689209,0.0603208541870117,-1.8410582542419436,13.839984375
1765999775043371000,19.29637109375,-2.352124691009521,0.197113037109375,-1.0713247060775757,13.858763427734374
1765999775062150000,19.31514990234375,-2.179943084716797,0.0459871292114257,-0.4214631915092468,13.877542236328125
1765999775080928500,19.333928466796877,-2.018218517303467,0.0691709518432617,0.2508512735366821,13.89632080078125
1765999775099707400,19.352707275390625,-1.7444591522216797,0.2198672294616699,0.5768457651138306,13.915099609374998
1765999775118486300,19.371486328125,-1.6865434646606443,0.2830486297607422,0.805649995803833,13.933878662109372
1765999775137265200,19.39026513671875,-1.771406173706055,0.5144762992858887,1.26485013961792,13.952657470703123
1765999775156044000,19.4090439453125,-2.955855369567871,1.5493903160095217,2.1690573692321777,13.971436279296874
1765999775174823000,19.427822998046874,-1.652425765991211,3.6770992279052734,3.1669633388519287,13.990215332031248
1765999775193601800,19.446601806640626,0.7497634887695312,3.43328857421875,1.4116322994232178,14.008994140625
1765999775212380700,19.465380615234373,3.3531980514526367,7.25123405456543,-1.6912755966186523,14.027772949218747
1765999775231159300,19.4841591796875,7.953210830688477,9.949565887451172,-3.979097366333008,14.046551513671872
1765999775249938200,19.50293823242188,7.779356479644775,7.891648292541504,-8.255464553833008,14.065330566406253
1765999775268717000,19.521717041015624,5.272743225097656,5.382282257080078,-10.602974891662598,14.084109374999997
1765999775287496000,19.54049584960937,0.1775078773498535,2.1138315200805664,-3.894274234771729,14.102888183593745
1765999775306274800,19.55927490234375,-1.5288949012756348,-1.7195844650268557,1.3432103395462036,14.121667236328122
1765999775325053700,19.5780537109375,-2.8406777381896973,-4.408712863922119,4.096110820770264,14.140446044921873
1765999775343832600,19.59683251953125,-1.255340576171875,-5.643290519714356,5.527442932128906,14.159224853515624
1765999775362611500,19.615611572265625,-0.5613787174224854,-3.7821507453918457,4.778984546661377,14.178003906249998
1765999775381390000,19.63439013671875,0.8626711368560791,-0.0317354202270507,1.8813469409942627,14.196782470703123
1765999775400169000,19.6531689453125,2.0171127319335938,3.898249626159668,-1.2839120626449585,14.215561279296875
1765999775418947800,19.67194775390625,3.190403938293457,3.889031410217285,-3.474461078643799,14.234340087890622
1765999775447116300,19.7001162109375,4.348272800445557,-0.3600120544433594,-3.3653881549835205,14.262508544921875
1765999775465895200,19.718895263671875,3.903529167175293,-0.3034954071044922,-2.2000107765197754,14.281287597656249
1765999775484673800,19.737673828125,3.632965564727783,0.9135284423828124,-1.8439183235168457,14.300066162109374
1765999775503452700,19.75645263671875,3.9154534339904794,1.6866693496704102,-2.9673562049865723,14.318844970703122
1765999775522231600,19.7752314453125,3.9022388458251953,2.285099983215332,-6.003469944000244,14.337623779296873
