time,seconds_elapsed,z,y,x,t
1765999772470669800,16.723669921875,0.731663703918457,-0.3911666870117187,-0.3067530393600464,11.286062255859374
1765999772489448700,16.74244873046875,1.4614344835281372,0.0470848083496093,-0.8578645586967468,11.304841064453125
1765999772508227600,16.7612275390625,3.150825023651123,0.3415498733520508,-1.7345308065414429,11.323619873046873
1765999772527006500,16.78000634765625,4.1078948974609375,1.2799100875854492,-2.7654030323028564,11.342398681640624
1765999772545785000,16.79878515625,4.433053970336914,1.742121696472168,-3.70785927772522,11.361177490234372
1765999772564564000,16.81756396484375,4.091953754425049,0.7214431762695312,-4.678708553314209,11.379956298828123
1765999772583342800,16.8363427734375,2.4866631031036377,0.3032131195068359,-4.593315601348877,11.398735107421874
1765999772602121700,16.855121826171874,0.7802906036376953,1.241037368774414,-3.329012870788574,11.417514160156248
1765999772620900600,16.873900634765626,-0.5263268947601318,2.381546974182129,-1.8392319679260252,11.43629296875
1765999772639679500,16.892679443359373,-0.9093079566955566,2.120205879211426,-0.2778230905532837,11.455071777343747
1765999772658458000,16.9114580078125,-1.6879324913024902,0.5330591201782227,0.7093612551689148,11.473850341796872
1765999772677237000,16.930237060546876,-2.378133773803711,-0.3337459564208984,0.6220173835754395,11.49262939453125
1765999772696016000,16.949015869140624,-1.6746439933776855,-0.2393522262573242,0.9409804940223694,11.511408203124997
1765999772714794800,16.967794677734375,-0.9688262939453124,-0.2139492034912109,1.0273683071136477,11.530187011718748
1765999772733573600,16.98657373046875,-0.8234977722167969,-0.4885969161987304,-0.0672473907470703,11.548966064453122
1765999772752352500,17.0053525390625,-0.2289357185363769,-1.0776028633117676,-0.9245907664299012,11.567744873046873
1765999772771131100,17.024131103515625,0.0865883827209472,-1.058405876159668,-0.909400463104248,11.586523437499999
1765999772789910000,17.042909912109376,-0.2705221176147461,-0.4417839050292969,-0.5624415278434753,11.60530224609375
1765999772808689000,17.06168896484375,-0.1303586959838867,4.38690185546e-05,0.1771799772977829,11.624081298828123
1765999772827467800,17.0804677734375,-0.0325336456298828,0.1952896118164062,0.391118049621582,11.642860107421875
1765999772846246700,17.09924658203125,0.4900188446044922,0.3835887908935547,0.4571600258350372,11.661638916015622
1765999772865025300,17.118025390625,0.7749743461608887,0.7728052139282227,0.6483776569366455,11.680417724609374
1765999772883804200,17.13680419921875,1.0046501159667969,0.9154596328735352,0.8038601875305176,11.699196533203125
1765999772902583000,17.1555830078125,0.8175816535949707,0.6648015975952148,0.5652066469192505,11.717975341796873
1765999772921362000,17.17436181640625,0.8012619018554688,0.3715858459472656,0.3819728493690491,11.736754150390624
1765999772940140800,17.193140869140624,0.9714803695678712,0.018660545349121,0.6560211777687073,11.755533203124997
1765999772958919400,17.21191943359375,1.1217389106750488,-0.0016603469848632,0.9558560848236084,11.774311767578123
1765999772977698300,17.2306982421875,1.6092188358306885,0.1796321868896484,1.31915020942688,11.793090576171874
1765999772996477200,17.249477294921874,1.7181994915008545,-0.0691175460815429,2.086365222930908,11.811869628906248
1765999773015256000,17.268256103515625,1.25828218460083,-0.2391495704650879,2.598240613937378,11.830648437499999
1765999773043424300,17.29642431640625,0.9316871166229248,0.1717948913574218,2.323628187179565,11.858816650390622
1765999773062203100,17.315203125,0.73227858543396,-0.2926845550537109,2.4431264400482178,11.877595458984374
1765999773080982000,17.33398193359375,1.006080150604248,-1.034130573272705,3.221767902374268,11.896374267578125
1765999773099761000,17.352760986328125,0.7763686180114746,-1.1748838424682615,4.993450164794922,11.915153320312498
1765999773118539500,17.37153955078125,-1.0079381465911863,-0.2357845306396484,5.631777763366699,11.933931884765624
1765999773137318400,17.390318359375,-1.4677734375,1.5940866470336914,4.717118263244629,11.952710693359375
1765999773156097300,17.40909716796875,-1.702438235282898,3.851251602172852,4.175814628601074,11.971489501953123
1765999773174876200,17.427876220703126,-1.771156668663025,5.991304397583008,2.800835132598877,11.9902685546875
1765999773203044400,17.45604443359375,2.1365532875061035,4.940995216369629,0.1315517425537109,12.018436767578123
1765999773221823200,17.4748232421875,3.68293023109436,3.534543991088867,-2.290066719055176,12.037215576171874
1765999773240602000,17.49360205078125,-5.103199481964111,-1.242833137512207,-7.080947399139404,12.055994384765622
1765999773259381000,17.512381103515626,1.2938661575317385,5.549076080322266,-6.80138635635376,12.0747734375
1765999773278159600,17.53115966796875,-0.2640695571899414,-0.4563016891479492,4.7948198318481445,12.093552001953125
1765999773296938500,17.5499384765625,-3.207301139831543,-0.9125633239746094,-0.7991809844970703,12.112330810546872
1765999773315717400,17.56871728515625,-3.757359743118286,-0.2254953384399414,0.3404445648193359,12.131109619140624
1765999773334496300,17.587496337890624,-4.4847822189331055,-3.2856221199035645,1.024858474731445,12.149888671874997
1765999773353275100,17.606275146484375,-4.585221290588379,-2.709381103515625,-0.1411690711975097,12.168667480468748
1765999773372054000,17.625053955078126,-4.170122146606445,-2.388546943664551,-2.238544464111328,12.1874462890625
1765999773390832600,17.64383251953125,-4.143609523773193,-2.908954620361328,-3.28299617767334,12.206224853515625
1765999773409611500,17.662611572265625,-4.178369998931885,-3.592693328857422,-3.086402416229248,12.225003906249999
1765999773428390400,17.681390380859376,-3.934502601623535,-3.814699649810791,-1.022469997406006,12.24378271484375
1765999773447169300,17.700169189453124,-3.8384640216827393,-3.534731864929199,0.5737758874893188,12.262561523437498
1765999773465948200,17.7189482421875,-3.2190756797790527,-3.103487014770508,1.561268329620361,12.281340576171875
1765999773484727000,17.73772705078125,-3.020390510559082,-2.5129036903381348,2.273508787155152,12.300119384765622
1765999773503505700,17.756505615234374,-2.970172643661499,-1.9133667945861816,1.634413719177246,12.318897949218748
1765999773522284500,17.775284423828126,-2.4685444831848145,-1.7457542419433594,0.6035402417182922,12.337676757812499
1765999773541063400,17.7940634765625,-1.723031520843506,-2.556222915649414,0.307102620601654,12.356455810546873
1765999773559842300,17.81284228515625,-1.5055265426635742,-3.513989925384521,0.1615964770317077,12.375234619140624
1765999773578621200,17.83162109375,-1.8369388580322263,-4.428474426269531,0.0817939043045044,12.394013427734375
1765999773597400000,17.850400146484375,-5.079518795013428,-2.821563243865967,0.6594594717025757,12.412792480468749
1765999773616178700,17.8691787109375,-1.5878071784973145,-1.529254913330078,-0.3911391496658325,12.431571044921874
1765999773634957600,17.88795751953125,2.161902666091919,0.9094743728637696,-2.9327614307403564,12.450349853515622
1765999773653736400,17.906736328125,2.259652614593506,0.9094743728637696,-1.747817873954773,12.469128662109373
1765999773681905000,17.93490478515625,5.833795547485352,0.9094743728637696,-1.510840654373169,12.497297119140622
1765999773710073000,17.963072998046876,1.8265249729156492,2.6736831665039062,-6.991052627563477,12.52546533203125
1765999773728852000,17.98185205078125,0.2535514831542969,-0.35736083984375,-5.9495625495910645,12.544244384765623
1765999773747630800,18.000630859375,0.963841676712036,-2.102118015289306,-1.6407217979431152,12.563023193359374
1765999773766409500,18.01940942382813,1.72199547290802,-2.4373607635498047,1.0478227138519287,12.581801757812503
1765999773785188400,18.038188232421877,0.8738973140716553,-1.35784912109375,1.173301100730896,12.60058056640625
1765999773803967200,18.05696728515625,0.3914618492126465,0.1070137023925781,-0.0037230849266052,12.619359619140624
1765999773822746000,18.07574609375,0.2516067028045654,1.127751350402832,-0.6752402782440186,12.638138427734372
1765999773850914300,18.103914306640625,1.1882377862930298,1.146164894104004,-0.7814929485321045,12.666306640624999
1765999773869693200,18.122693115234377,1.872343897819519,0.1161966323852539,-0.5736780166625977,12.68508544921875
1765999773888472000,18.14147216796875,1.870311260223389,-0.1670808792114257,-0.5495650172233582,12.703864501953124
1765999773907251000,18.1602509765625,1.391087532043457,0.1029720306396484,-0.4361482858657837,12.722643310546875
1765999773926029800,18.17902978515625,0.4123952388763428,0.2062568664550781,-0.2808519005775451,12.741422119140623
1765999773944808400,18.19780834960937,-0.2122800350189209,0.0520191192626953,-0.1095312237739563,12.760200683593744
1765999773963587300,18.21658740234375,-0.1523947715759277,-0.0637531280517578,0.1486823260784149,12.778979736328125
1765999773982366200,18.2353662109375,0.4367570877075195,-0.1914510726928711,0.2668127715587616,12.797758544921873
1765999774001145000,18.25414501953125,0.4935311079025268,-0.0854978561401367,0.5352808237075806,12.816537353515624
1765999774019924000,18.272924072265624,0.303030252456665,-0.012969970703125,0.4978768527507782,12.835316406249998
1765999774038702800,18.291702880859376,0.4574640989303589,0.0880937576293945,0.1246499419212341,12.854095214843749
1765999774057481700,18.310481689453123,0.7635005712509155,0.0679140090942382,0.489641934633255,12.872874023437497
1765999774076260400,18.32926025390625,0.7955663204193115,-0.1455621719360351,0.9280734658241272,12.891652587890622
1765999774095039200,18.348039306640626,-0.0551967620849609,-0.3131370544433594,1.3357635736465454,12.910431640625
1765999774113818000,18.366818115234373,-1.4223549365997314,0.0443334579467773,1.345617175102234,12.929210449218747
1765999774132597000,18.385596923828125,-2.181487560272217,0.49322509765625,1.145673394203186,12.947989257812498
1765999774151376000,18.4043759765625,-1.1438586711883545,0.0234441757202148,1.0439926385879517,12.966768310546872
1765999774170154800,18.42315478515625,-0.0512471199035644,-0.166691780090332,1.1024779081344604,12.985547119140623
1765999774188933400,18.44193334960937,0.5336437225341797,-0.0681896209716796,0.5839531421661377,13.004325683593745
1765999774207712300,18.46071215820313,1.0141648054122925,-0.16363525390625,-0.0515204071998596,13.023104492187503
1765999774226491100,18.4794912109375,1.7264658212661743,-0.1572189331054687,0.1116889417171478,13.041883544921873
1765999774245270000,18.49827001953125,2.127804756164551,0.0343513488769531,0.1136606335639953,13.060662353515625
1765999774264049000,18.517048828125,2.2309353351593018,0.0344448089599609,-0.8351675271987915,13.079441162109372
1765999774282827800,18.535827880859376,2.3317198753356934,0.3549041748046875,-1.7287006378173828,13.09822021484375
1765999774301606700,18.554606689453124,3.245150327682495,0.830592155456543,-1.7850501537322998,13.116999023437497
1765999774320385500,18.573385498046875,4.009428024291992,1.2255353927612305,-1.5725884437561035,13.135777832031248
1765999774339164200,18.5921640625,3.5484042167663574,1.2881040573120115,-2.204466819763184,13.154556396484374
1765999774357943000,18.61094311523437,2.966153621673584,1.147705078125,-2.288935661315918,13.173335449218744
1765999774376722000,18.629721923828125,2.3934850692749023,1.6746416091918943,-2.131789445877075,13.192114257812499
1765999774395500800,18.64850073242188,0.224898099899292,2.7405385971069336,-2.4349803924560547,13.210893066406253
1765999774414279700,18.66727978515625,-0.1852176189422607,3.4376707077026367,-3.945784330368042,13.229672119140623
1765999774433058600,18.68605859375,1.214365005493164,2.5984764099121094,-3.5456292629241943,13.248450927734375
1765999774451837400,18.70483740234375,-0.817697286605835,0.7467422485351562,-1.6479716300964355,13.267229736328122
1765999774470616300,18.7236162109375,-3.081060647964477,0.1673173904418945,-0.5258122682571411,13.286008544921874
1765999774489395000,18.74239501953125,-2.3163156509399414,0.5557632446289062,1.2234609127044678,13.304787353515625
1765999774508173800,18.761173828125,-0.9271936416625975,0.5067129135131836,2.265857458114624,13.323566162109373
