time,seconds_elapsed,z,y,x,t
1765999762217441000,6.47044091796875,-0.129357099533081,0.1337785720825195,1.9109960794448853,1.0328332519531251
1765999762236219600,6.4892197265625,0.5774374008178711,1.2500638961791992,-0.2042966187000274,1.0516120605468755
1765999762254998500,6.50799853515625,1.011086106300354,1.1100788116455078,-2.0693347454071045,1.070390869140625
1765999762273777400,6.52677734375,1.5124074220657349,0.1980981826782226,-2.0573623180389404,1.0891696777343753
1765999762292556000,6.54555615234375,2.1008214950561523,-0.2706508636474609,-0.6364027261734009,1.1079484863281257
1765999762311335000,6.5643349609375,2.1872482299804688,0.006866455078125,0.9301975965499878,1.1267272949218752
1765999762330113800,6.58311376953125,1.7490193843841553,0.6528177261352539,1.6593458652496338,1.1455061035156255
1765999762348892400,6.601892333984375,0.4940681457519531,0.6459770202636719,2.018803358078003,1.16428466796875
1765999762386450200,6.6394501953125,-0.3637596368789673,-0.3813810348510742,-0.3682641088962555,1.2018425292968749
1765999762405228800,6.658228759765625,0.0142121315002441,-0.342681884765625,-0.544184684753418,1.2206210937500002
1765999762424007700,6.677007568359375,0.5029840469360352,-0.2654294967651367,-0.2499973475933075,1.2393999023437505
1765999762442786300,6.695786376953125,1.1643612384796145,-0.3494024276733398,-0.2572137713432312,1.2581787109375
1765999762461565200,6.714565185546875,1.6275348663330078,-0.2903890609741211,-0.3578909039497375,1.2769575195312504
1765999762480344000,6.733343994140625,2.074270009994507,-0.2650718688964844,-0.5802087783813477,1.2957363281249998
1765999762499122700,6.752122802734375,2.8174521923065186,-0.2736930847167969,-0.5984098315238953,1.3145151367187502
1765999762517901600,6.770901611328125,4.063078880310059,-0.1184911727905273,-0.4968820214271545,1.3332939453125006
1765999762536680400,6.789680419921875,5.090788841247559,0.7212867736816406,-0.1996082663536071,1.35207275390625
1765999762555459000,6.808458984375,4.513185977935791,1.6489143371582031,-1.7197073698043823,1.3708513183593753
1765999762574238000,6.827238037109375,3.694682121276856,0.1663503646850586,-4.441075325012207,1.3896303710937499
1765999762593016800,6.846016845703125,2.888508081436157,-1.0719976425170898,-5.888073921203613,1.4084091796875002
1765999762611795500,6.86479541015625,1.3306061029434204,-1.151432991027832,-4.96129846572876,1.4271877441406255
1765999762630574300,6.88357421875,-0.9747519493103028,-0.224766731262207,-2.543551445007324,1.445966552734375
1765999762649353000,6.90235302734375,-2.449678421020508,1.1066551208496094,0.4922493696212768,1.4647453613281254
1765999762668131800,6.9211318359375,-1.1517038345336914,1.9084367752075195,2.814910411834717,1.4835241699218749
1765999762686910700,6.93991064453125,0.7405998706817627,2.5140161514282227,3.6074392795562735,1.5023029785156252
1765999762715079000,6.968078857421875,1.2119910717010498,3.6094913482666016,0.4424245953559875,1.5304711914062503
1765999762733857500,6.986857421875,1.082352876663208,3.5981521606445312,-1.8709863424301147,1.5492497558593756
1765999762752636400,7.005636474609375,0.3241662979125976,3.393378257751465,-3.0302350521087646,1.5680288085937502
1765999762771415000,7.0244150390625,-0.6683588027954102,3.175117492675781,-2.4952733516693115,1.5868073730468755
1765999762790194000,7.04319384765625,-1.876265048980713,2.313431739807129,-0.7865088582038879,1.605586181640625
1765999762808972800,7.061972900390625,-2.5578420162200928,1.3519411087036133,1.0589452981948853,1.6243652343750004
1765999762827751700,7.080751708984375,-2.2898526191711426,0.7733869552612305,2.690143823623657,1.6431440429687498
1765999762846530300,7.0995302734375,-2.019051551818848,0.0743026733398437,4.817800521850586,1.6619226074218751
1765999762865309200,7.11830908203125,-0.8384200930595398,-0.9774160385131836,5.071970462799072,1.6807014160156255
1765999762884087800,7.137087890625,-8.501352310180664,-6.412913799285889,4.502091407775879,1.699480224609375
1765999762902866700,7.15586669921875,-2.528935670852661,-0.7715768814086914,-1.4992868900299072,1.7182590332031253
1765999762921645600,7.1746455078125,-2.837101936340332,5.50727653503418,0.0899382829666137,1.7370378417968757
1765999762940424200,7.193424072265625,-1.2329132556915283,-2.2709221839904785,1.879103422164917,1.7558164062500001
1765999762959203000,7.212203125,-0.7006080150604248,-3.8729805946350098,-2.860528945922852,1.7745954589843755
1765999762977982000,7.23098193359375,-0.2079405784606933,1.7534427642822266,-5.856151103973389,1.793374267578125
1765999762996760600,7.249760498046875,-2.132033348083496,-0.4287919998168945,-3.115781784057617,1.8121528320312503
1765999763024928800,7.2779287109375,-2.626768112182617,-2.84985876083374,-0.5010014772415161,1.8403210449218754
1765999763043707600,7.296707763671875,-2.2687554359436035,-1.7576165199279783,-1.5009663105010986,1.85910009765625
1765999763062486500,7.315486572265625,-2.6931471824646,-2.020668029785156,-1.255627989768982,1.8778789062500003
1765999763081265200,7.33426513671875,-2.8565714359283447,-2.4228410720825195,-1.023248314857483,1.8966574707031256
1765999763100044000,7.3530439453125,-2.894372701644897,-2.59897518157959,-1.7958475351333618,1.915436279296875
1765999763118822700,7.37182275390625,-3.0991930961608887,-2.687403678894043,-2.166454076766968,1.9342150878906255
1765999763137601500,7.3906015625,-3.2105884552001958,-2.654305458068848,-2.100951910018921,1.952993896484375
1765999763156380400,7.40938037109375,-3.0468173027038574,-2.6566481590271,-1.6611775159835815,1.9717727050781253
1765999763184548600,7.437548583984375,-2.882042407989502,-2.239509105682373,-0.8386052250862122,1.9999409179687504
1765999763203327200,7.4563271484375,-2.6414542198181152,-1.88169527053833,-0.3873947858810425,2.0187194824218757
1765999763222106000,7.475106201171875,-2.600222587585449,-1.646979808807373,-0.285991907119751,2.0374985351562502
1765999763240885000,7.493885009765625,-2.5235602855682373,-1.4999723434448242,-0.4866838455200195,2.0562773437500006
1765999763259663600,7.51266357421875,-2.3396482467651367,-1.2997751235961914,-0.7477251291275024,2.075055908203125
1765999763278442500,7.5314423828125,-2.179436206817627,-0.8619890213012695,-1.0084391832351685,2.0938347167968754
1765999763297221000,7.55022119140625,-2.1047592163085938,-0.3186407089233398,-1.2735333442687988,2.112613525390625
1765999763316000000,7.569,-1.677147388458252,-0.0960245132446289,-1.2437090873718262,2.131392333984375
1765999763353557500,7.6065576171875,-1.4229469299316406,0.1152019500732421,-0.2541018724441528,2.168949951171875
1765999763372336400,7.62533642578125,-1.5973684787750244,0.4353084564208984,0.1125175952911377,2.1877287597656254
1765999763391115300,7.644115234375,-1.425833225250244,0.8953123092651367,0.1966973543167114,2.206507568359375
1765999763409894000,7.662893798828125,-0.8570060729980469,1.109694480895996,0.545256495475769,2.2252861328125
1765999763428672800,7.6816728515625,-0.3406963348388672,1.2437849044799805,0.9021284580230712,2.2440651855468756
1765999763447451600,7.70045166015625,0.0516796112060546,1.0890827178955078,1.1373597383499146,2.262843994140625
1765999763466230300,7.719230224609375,0.2887711524963379,0.7108154296875,1.5550934076309204,2.2816225585937504
1765999763485009200,7.738009033203125,0.2648544311523437,0.5751190185546875,1.999345302581787,2.3004013671875
1765999763503788000,7.7567880859375,0.1043496131896972,0.944448471069336,1.979391098022461,2.3191804199218753
1765999763522566700,7.775566650390625,-0.6313662528991699,2.427206993103028,1.429548978805542,2.3379589843750006
1765999763541345500,7.794345458984375,0.5064702033996582,2.7476301193237305,0.3954587876796722,2.35673779296875
1765999763560124200,7.813124267578125,4.449154376983643,3.127002716064453,-2.5538477897644043,2.3755166015625004
1765999763578903000,7.831903076171875,5.8480143547058105,4.123888969421387,-3.5090889930725098,2.39429541015625
1765999763597682000,7.850681884765625,4.349775791168213,4.514117240905762,-3.990399837493897,2.4130742187500003
1765999763616460800,7.869460693359375,1.8743994235992432,4.094629287719727,-4.970976829528809,2.4318530273437506
1765999763635239400,7.888239501953125,-0.1542558670043945,2.242182731628418,-1.9590442180633545,2.4506318359375
1765999763663407600,7.91640771484375,-2.5978500843048096,-1.2232251167297363,2.382356882095337,2.478800048828125
1765999763682186500,7.9351865234375,-2.7586827278137207,-2.887570381164551,2.561596393585205,2.4975788574218756
1765999763700965000,7.953965087890625,-2.4926891326904297,-2.2119150161743164,0.9542471170425416,2.516357421875
1765999763719744000,7.972743896484375,-1.2130613327026367,-0.467498779296875,0.3922191858291626,2.5351362304687504
1765999763738523000,7.99152294921875,0.7107200622558594,0.3013639450073242,-0.5160347819328308,2.553915283203125
1765999763766691000,8.019691162109375,4.388519287109375,0.6227197647094727,0.035516619682312,2.58208349609375
1765999763785469700,8.0384697265625,6.144309043884277,1.5460567474365234,0.9987305998802184,2.6008620605468753
1765999763804248600,8.05724853515625,6.625850677490234,2.146357536315918,-0.8087586760520935,2.6196408691406248
1765999763823027500,8.07602734375,7.420748710632324,0.19696044921875,-3.323922634124756,2.638419677734376
1765999763841806000,8.09480615234375,8.636880874633789,-0.7362060546875,-6.3617777824401855,2.6571984863281255
1765999763860585000,8.1135849609375,9.37770652770996,-0.536494255065918,-8.827171325683594,2.675977294921875
1765999763879363800,8.13236376953125,9.96178913116455,0.2462005615234375,-10.250551223754885,2.6947561035156244
1765999763898142500,8.151142578125,6.369674682617188,1.5693244934082031,-6.068422317504883,2.7135349121093757
1765999763926310700,8.179310546875,-4.581381797790527,5.992658615112305,-1.0191733837127686,2.741702880859375
1765999763945089500,8.198089599609375,-6.241725921630859,4.958234786987305,2.4832210540771484,2.7604819335937503
1765999763963868400,8.216868408203124,-3.313705444335937,3.6204910278320312,3.490657091140747,2.7792607421874997
1765999763982647000,8.23564697265625,0.1501953601837158,3.480997085571289,3.6964592933654794,2.798039306640625
1765999764001426000,8.254426025390625,0.416435956954956,2.6373462677001958,2.87039566040039,2.8168183593750005
1765999764029594000,8.282593994140624,-2.5388615131378174,3.225724220275879,0.1390763819217682,2.8449863281249996
1765999764048373000,8.301373046875,-2.6862447261810303,1.6065378189086914,2.5249154567718506,2.863765380859375
1765999764067151600,8.320151611328125,0.5435395240783691,-0.7846088409423828,5.378986835479736,2.8825439453125004
1765999764085930500,8.338930419921875,-8.59253215789795,-8.110217094421387,6.514353752136231,2.90132275390625
1765999764104709400,8.35770947265625,-2.6420445442199707,0.3928918838500976,2.2905988693237305,2.9201018066406252
1765999764123488000,8.376488037109375,-1.0822248458862305,5.23994255065918,2.618332624435425,2.9388803710937506
1765999764142267000,8.395266845703125,-1.395218014717102,-3.610383987426758,1.8527817726135252,2.9576591796875
1765999764161045800,8.414045654296874,-0.7948383092880249,-1.893341064453125,-3.4176926612854004,2.9764379882812495
1765999764179824400,8.432824462890625,-2.2672410011291504,-0.6704177856445312,-2.8212783336639404,2.9952167968750008
1765999764198603300,8.451603271484375,-2.7799553871154785,-3.4364638328552246,-1.2979493141174316,3.0139956054687502
1765999764217382100,8.470382080078124,-3.007854461669922,-3.758932590484619,-1.733883023262024,3.0327744140624997
1765999764236160800,8.489160888671876,-3.3753254413604736,-3.070302963256836,-1.8387320041656492,3.051553222656251
1765999764254939600,8.507939697265625,-3.666845560073853,-3.0178513526916504,-0.1457013636827469,3.0703320312500004
1765999764273718300,8.52671826171875,-3.567573547363281,-3.308783531188965,0.1678365468978881,3.0891105957031257
1765999764292497200,8.5454970703125,-3.3864893913269043,-3.4327640533447266,-0.3695173263549804,3.107889404296875
1765999764311276000,8.564276123046875,-3.5314481258392334,-3.0837926864624023,-0.653997004032135,3.1266684570312506
