time,seconds_elapsed,z,y,x,t
1765999787850567400,32.1035673828125,-1.9641475677490237,1.7022600173950195,-2.520036458969116,26.665959716796873
1765999787869346300,32.12234619140625,-1.9469594955444336,0.8580799102783203,-1.176490068435669,26.684738525390625
1765999787888125200,32.141125244140625,-1.006816864013672,1.6671829223632812,0.1662910878658294,26.703517578125
1765999787906904000,32.159904052734376,-0.4359662532806396,1.7464485168457031,1.721196532249451,26.72229638671875
1765999787925683000,32.17868286132813,-0.1525425910949707,0.9537286758422852,1.9262306690216064,26.7410751953125
1765999787944461800,32.1974619140625,-0.6054501533508301,0.7944068908691406,1.5568599700927734,26.759854248046874
1765999787963240700,32.21624072265625,-0.5119607448577881,0.517725944519043,2.2325968742370605,26.778633056640626
1765999787982019600,32.23501953125,0.4885965585708618,-1.547673225402832,3.8609328269958496,26.797411865234377
1765999788000798500,32.25379858398438,-6.535426139831543,-5.7414093017578125,3.316614866256714,26.81619091796875
1765999788019577600,32.27257763671875,-1.9218907356262207,-0.4297866821289062,1.1907126903533936,26.834969970703124
1765999788038356500,32.2913564453125,-1.0150269269943235,4.474578857421875,3.499507427215576,26.853748779296875
1765999788057135400,32.31013525390625,-1.6104575395584106,-0.9730386734008788,0.5984312295913696,26.872527587890627
1765999788075914200,32.32891430664063,-0.7737811803817749,-1.7305240631103516,-3.030677556991577,26.891306640625
1765999788094693000,32.34769311523438,-0.3687962293624878,-0.5088319778442383,-2.145248889923096,26.91008544921875
1765999788113472000,32.36647192382812,-1.6763875484466553,-1.896051406860352,-0.3308784365653991,26.928864257812496
1765999788132251000,32.3852509765625,-2.652760505676269,-2.590611934661865,1.0876424312591553,26.947643310546876
1765999788151029800,32.40402978515625,-2.704878091812134,-2.318792819976806,1.1117210388183594,26.96642211914062
1765999788169808600,32.42280859375,-2.805263042449951,-2.7019405364990234,0.4284214377403259,26.985200927734372
1765999788188587500,32.44158740234375,-2.8993141651153564,-3.290670871734619,-0.139565110206604,27.003979736328123
1765999788207366400,32.46036645507812,-2.81479287147522,-3.533299446105957,-0.4553643465042114,27.022758789062497
1765999788226145500,32.4791455078125,-2.810655117034912,-3.309607982635498,-0.821039617061615,27.04153784179687
1765999788244924400,32.49792431640625,-2.874361038208008,-3.1942005157470703,-0.9169572591781616,27.06031665039062
1765999788263703300,32.51670336914062,-3.04695200920105,-3.24300479888916,-0.938025951385498,27.079095703124995
1765999788282482200,32.53548217773437,-3.14225435256958,-3.3806114196777344,-0.7380011081695557,27.097874511718747
1765999788301261000,32.554260986328124,-3.090259075164795,-3.3386240005493164,-0.4237352013587951,27.116653320312498
1765999788320040000,32.5730400390625,-3.1052169799804688,-3.064414978027344,-0.3312309980392456,27.13543237304687
1765999788338818800,32.59181884765625,-3.088339805603028,-2.750309944152832,-0.5665630102157593,27.154211181640623
1765999788357597700,32.61059765625,-3.0807924270629883,-2.330987930297852,-0.6844696402549744,27.172989990234374
1765999788376376600,32.62937646484375,-2.99184799194336,-1.882251739501953,-0.8173236846923828,27.191768798828125
1765999788395155500,32.648155517578125,-2.8344459533691406,-1.5844664573669434,-0.6960748434066772,27.2105478515625
1765999788413934300,32.66693432617188,-2.6504781246185303,-1.5030136108398438,-0.2601491212844848,27.22932666015625
1765999788432713200,32.68571313476563,-2.4910664558410645,-1.040924072265625,0.2189945876598358,27.24810546875
1765999788451492400,32.704492431640624,-2.395393133163452,0.1255140304565429,0.5416050553321838,27.266884765624997
1765999788470271200,32.723271240234375,-2.0096445083618164,1.1434049606323242,0.5967246294021606,27.28566357421875
1765999788489050000,32.742050048828126,-1.426833152770996,1.461836814880371,0.1891542077064514,27.3044423828125
1765999788507829000,32.7608291015625,-0.8954339027404785,1.346170425415039,-0.3801439702510834,27.323221435546873
1765999788526608000,32.77960791015625,-0.507927417755127,1.3260211944580078,-0.4556770622730255,27.342000244140625
1765999788545386800,32.79838671875,-0.0347037315368652,1.501847267150879,0.1215197741985321,27.360779052734376
1765999788564165600,32.81716552734375,-0.4526281356811523,1.7818489074707031,1.262324571609497,27.37955786132812
1765999788582944500,32.83594458007813,-0.722588062286377,2.6567840576171875,2.793055295944214,27.3983369140625
1765999788601723400,32.85472338867187,-1.2119121551513672,4.006542205810547,3.3609635829925537,27.417115722656245
1765999788620502300,32.87350219726562,0.5185017585754395,4.678094863891602,2.331506729125977,27.435894531249996
1765999788639281400,32.892281494140626,3.641009330749512,4.579085350036621,-3.816517114639282,27.454673828125
1765999788658060300,32.91106030273438,6.301612854003906,7.9945068359375,-8.697112083435059,27.47345263671875
1765999788676839200,32.92983911132813,5.996804237365723,7.235140800476074,-8.43844985961914,27.492231445312502
1765999788695618000,32.9486181640625,3.322863340377808,1.6016950607299805,-9.860984802246094,27.511010498046875
1765999788714397000,32.96739697265625,0.8632364273071289,-0.8168134689331055,-5.636453628540039,27.529789306640627
1765999788733175800,32.98617578125,-0.0359067916870117,-1.2690701484680176,-1.1135681867599487,27.54856811523437
1765999788751954700,33.00495458984375,1.3572709560394287,-1.291855812072754,1.3187859058380127,27.567346923828122
1765999788770733600,33.02373364257812,2.3751962184906006,0.3445053100585937,-0.1594749689102172,27.586125976562496
1765999788789512400,33.04251245117187,3.110219717025757,1.5389604568481443,-3.2025766372680664,27.604904785156247
1765999788808291300,33.061291259765625,3.2387466430664062,1.4564571380615234,-4.527781486511231,27.62368359375
1765999788827070500,33.08007055664063,2.0930428504943848,1.0001258850097656,-3.878289461135864,27.642462890625
1765999788845849300,33.09884936523437,1.4646430015563965,1.452615737915039,-2.929474353790283,27.661241699218746
1765999788864628200,33.11762817382812,1.8760591745376587,1.5579729080200195,-1.3937482833862305,27.680020507812497
1765999788883407000,33.136406982421875,1.9921011924743648,1.2198820114135742,0.5769015550613403,27.698799316406248
1765999788902186000,33.15518603515625,1.3247222900390625,1.1347665786743164,2.1739063262939453,27.71757836914062
1765999788920964900,33.17396484375,1.1933012008666992,1.613917350769043,3.877551317214966,27.736357177734373
1765999788939743700,33.19274365234375,0.6688969135284424,1.061945915222168,3.6700520515441895,27.755135986328124
1765999788958523000,33.21152294921875,-0.4881691932678222,-0.1745748519897461,1.3880438804626465,27.77391528320312
1765999788977301800,33.2303017578125,-0.5382704734802246,-0.8048257827758789,-1.5892881155014038,27.79269409179687
1765999788996080600,33.24908056640625,1.304349660873413,-0.5968523025512695,-1.1832369565963743,27.811472900390623
1765999789014859500,33.26785961914062,1.2056396007537842,1.4173316955566406,1.1669130325317385,27.830251953124996
1765999789033638400,33.286638427734374,-0.0587549209594726,5.198574066162109,2.7163963317871094,27.849030761718748
1765999789052417300,33.305417236328125,-2.4088094234466557,8.758865356445312,2.1492414474487305,27.8678095703125
1765999789071196200,33.32419604492188,0.4620405435562134,5.602190971374512,5.21291446685791,27.88658837890625
1765999789089975000,33.34297509765625,-8.232770919799805,-4.800421714782715,3.8409109115600586,27.905367431640624
1765999789108754000,33.36175390625,-0.8555949330329895,2.43087100982666,-4.034150123596191,27.924146240234375
1765999789127532800,33.38053271484375,0.4808345735073089,6.472960472106934,1.1081912517547607,27.942925048828126
1765999789146312000,33.39931201171875,1.0346765518188477,-3.710682392120361,4.732209205627441,27.961704345703122
1765999789165090800,33.4180908203125,-1.9448760747909544,-3.532101631164551,1.2773373126983645,27.980483154296873
1765999789183869700,33.43686962890625,-4.266263008117676,-2.795133590698242,1.7008906602859497,27.999261962890625
1765999789202648600,33.455648681640625,-4.2650322914123535,-5.235080242156982,3.690094947814941,28.018041015625
1765999789221427500,33.474427490234376,-2.980067491531372,-5.633244514465332,1.7050597667694092,28.03681982421875
1765999789240206300,33.49320629882813,-2.787508964538574,-4.582020282745361,-1.4542012214660645,28.0555986328125
1765999789258985200,33.51198510742187,-3.5269012451171875,-3.97999906539917,-3.829702377319336,28.074377441406245
1765999789277764000,33.53076416015625,-3.748067140579224,-4.300490379333496,-3.866089582443237,28.093156494140626
1765999789296543000,33.54954296875,-3.876441717147827,-4.951293468475342,-1.3976571559906006,28.111935302734377
1765999789315321900,33.56832177734375,-4.117720603942871,-4.717959880828857,0.2967896461486816,28.13071411132812
1765999789334101000,33.58710107421875,-4.125911712646484,-3.7930150032043457,0.5692140460014343,28.149493408203124
1765999789352879900,33.6058798828125,-3.673404693603516,-2.982524871826172,0.495670348405838,28.168272216796876
1765999789371658800,33.62465869140625,-3.365457534790039,-2.6016554832458496,0.1970453411340713,28.187051025390627
1765999789390437600,33.64343774414063,-3.416518211364746,-2.302914619445801,0.0156333446502685,28.205830078125
1765999789409216500,33.66221655273438,-3.0887629985809326,-1.629788875579834,-0.1665845215320587,28.22460888671875
1765999789427995400,33.68099536132812,-2.8695011138916016,-0.8940887451171875,-0.3250929713249206,28.243387695312496
1765999789446774300,33.699774169921874,-1.909271001815796,-1.0361905097961426,-0.4593182504177093,28.262166503906247
1765999789465553200,33.71855322265625,-2.215029239654541,-1.6005816459655762,0.4411266446113586,28.28094555664062
1765999789484332000,33.73733203125,-3.835036993026733,-1.4608478546142578,0.930145025253296,28.299724365234372
1765999789503111000,33.75611083984375,-4.875026702880859,3.6386642456054688,2.688138246536255,28.318503173828123
1765999789521890000,33.77489013671875,5.884888648986816,4.883082389831543,1.340391755104065,28.337282470703126
1765999789540669000,33.7936689453125,5.193985939025879,12.346819877624512,-5.699512004852295,28.35606127929687
1765999789559447800,33.81244775390625,10.852899551391602,16.55474853515625,-9.492966651916504,28.37484008789062
1765999789578226700,33.83122680664062,5.4003520011901855,7.001002311706543,-12.25547218322754,28.393619140624995
1765999789597005600,33.85000561523437,0.0387883186340332,0.1934194564819336,-7.487147808074951,28.412397949218747
1765999789615784400,33.868784423828124,-1.2584178447723389,-3.507174491882324,-1.0062037706375122,28.431176757812498
1765999789634563300,33.88756323242188,-1.2342839241027832,-4.731462001800537,4.61580228805542,28.449955566406256
1765999789653342500,33.90634252929687,-0.3084444999694824,-3.9024696350097656,6.579007148742676,28.468734863281245
1765999789672121300,33.92512133789062,0.2253262996673584,-1.206096649169922,6.19559383392334,28.487513671874996
1765999789690900200,33.943900146484374,-0.0735349655151367,1.3249530792236328,4.275312900543213,28.506292480468748
1765999789709679000,33.96267919921875,0.1549432277679443,2.1267309188842773,1.8552669286727903,28.52507153320312
1765999789728458000,33.9814580078125,0.768789529800415,1.2196855545043943,-0.4451050162315368,28.543850341796873
1765999789747236900,34.00023681640625,0.6453666687011719,0.6941890716552734,-1.870057225227356,28.562629150390624
1765999789766015700,34.019015625,0.4679667949676513,0.5229272842407227,-1.525854229927063,28.581407958984375
1765999789784794600,34.037794677734375,0.0180120468139648,0.7336826324462891,-0.6266282796859741,28.60018701171875
1765999789803573800,34.05657373046875,0.0194168090820312,0.4121456146240234,0.0250105615705251,28.618966064453122
1765999789822352600,34.0753525390625,-0.1509919166564941,0.0618667602539062,0.317738264799118,28.637744873046874
1765999789841131500,34.094131591796874,-0.4059984683990478,-0.0056591033935546,0.3632079362869262,28.656523925781247
