time,seconds_elapsed,z,y,x,t
1765999782705149700,26.958149658203126,-2.5380337238311768,-0.8157873153686523,-1.534903883934021,21.5205419921875
1765999782723928600,26.976928466796878,-2.1523327827453613,-0.4076690673828125,-1.5675804615020752,21.53932080078125
1765999782752096800,27.0050966796875,-1.865875005722046,-0.5961456298828125,-1.571690559387207,21.567489013671874
1765999782770875600,27.023875732421875,-1.797224521636963,-0.7936830520629883,-1.5323821306228638,21.586268066406248
1765999782789654500,27.042654541015622,-1.6206856966018677,-0.9512910842895508,-1.2289704084396362,21.605046874999996
1765999782808433400,27.061433349609374,-1.602306604385376,-1.1201105117797852,-0.8688080310821533,21.623825683593747
1765999782827212300,27.08021240234375,-1.577916145324707,-1.0669984817504885,-0.4980273246765136,21.642604736328124
1765999782845991200,27.0989912109375,-1.4390456676483154,-0.7922077178955078,-0.2324002981185913,21.661383544921872
1765999782864770000,27.11777001953125,-1.1499855518341064,-0.5810365676879883,-0.1808193325996399,21.680162353515623
1765999782883549000,27.136548828125,-1.0320277214050293,-0.611140251159668,-0.1648756265640258,21.698941162109374
1765999782902327800,27.15532788085937,-0.9767560958862304,-0.7817153930664062,0.0367501378059387,21.717720214843744
1765999782921106700,27.17410668945313,-0.9134454727172852,-0.8500814437866211,0.2908469438552856,21.736499023437503
1765999782939885600,27.192885498046877,-0.860034704208374,-0.458221435546875,0.535032331943512,21.75527783203125
1765999782958664400,27.21166455078125,-0.809074878692627,0.1331319808959961,0.619103729724884,21.774056884765624
1765999782977443300,27.230443359375,-0.8332185745239258,0.3835487365722656,0.6204376220703125,21.792835693359372
1765999782996222200,27.24922216796875,-0.7624211311340332,0.3423662185668945,0.4173117280006408,21.811614501953123
1765999783015001000,27.2680009765625,-0.6030368804931641,0.3548440933227539,0.1634825468063354,21.830393310546874
1765999783033780000,27.286780029296875,-0.4222044944763183,0.6874246597290039,0.0290920138359069,21.849172363281248
1765999783052558800,27.305558837890626,-0.2581028938293457,1.100539207458496,-0.0267174243927001,21.867951171875
1765999783080727300,27.333727294921875,-0.0880646705627441,1.0646123886108398,0.1773583590984344,21.89611962890625
1765999783099506200,27.352506103515623,0.0453462600708007,0.8391857147216797,0.4094945192337036,21.914898437499996
1765999783127674600,27.38067456054688,0.3382306098937988,0.5716428756713867,0.8560559749603271,21.943066894531253
1765999783146453500,27.39945361328125,0.2174520492553711,0.5129833221435547,1.337414264678955,21.961845947265623
1765999783165232400,27.418232421875,0.5512824058532715,0.7776317596435547,1.6188592910766602,21.980624755859374
1765999783184011300,27.43701123046875,0.7251935005187988,1.052485466003418,1.535143494606018,21.999403564453125
1765999783202790100,27.4557900390625,1.0079870223999023,1.329303741455078,1.4995619058609009,22.018182373046873
1765999783221569000,27.47456909179688,1.0546011924743652,1.688556671142578,1.2081314325332642,22.036961425781254
1765999783240348000,27.493347900390624,1.3841798305511477,1.8788156509399412,0.0553233474493026,22.055740234374998
1765999783259126800,27.512126708984376,1.810133934020996,2.106268882751465,-1.8558977842330933,22.07451904296875
1765999783277905700,27.53090576171875,1.9315767288208008,2.6087045669555664,-3.016895294189453,22.093298095703123
1765999783306073900,27.559073974609376,1.5258660316467283,2.252882957458496,-2.2345564365386963,22.12146630859375
1765999783324852700,27.577852783203124,1.2969658374786377,1.3896808624267578,-1.1791924238204956,22.140245117187497
1765999783343631600,27.596631591796875,0.8360650539398193,0.8635435104370117,-0.594544529914856,22.15902392578125
1765999783362410500,27.615410400390623,0.1141643524169921,0.8537578582763672,-0.2329983413219452,22.177802734374996
1765999783381189400,27.634189453125,-0.2242627143859863,0.5079421997070312,0.1806339472532272,22.196581787109373
1765999783399968300,27.65296826171875,-0.0848946571350097,0.0461254119873046,0.7079338431358337,22.215360595703125
1765999783418747400,27.671747314453125,0.3725233078002929,0.1135969161987304,0.7107821702957153,22.2341396484375
1765999783437526000,27.69052612304688,0.8525433540344238,0.5540180206298828,0.4568198025226593,22.252918457031253
1765999783456305200,27.70930517578125,1.0673496723175049,0.9433612823486328,0.048583760857582,22.271697509765623
1765999783484473300,27.73747338867188,0.5309240818023682,0.7194585800170898,-0.1783012896776199,22.299865722656254
1765999783503252200,27.756252197265624,0.165811538696289,0.3501834869384765,-0.1254380643367767,22.318644531249998
1765999783522031000,27.775031005859372,-0.0248501300811767,0.1884670257568359,-0.1284963339567184,22.337423339843745
1765999783540810000,27.79381005859375,-0.1920909881591797,-0.001357078552246,-0.2450034916400909,22.356202392578123
1765999783559588900,27.8125888671875,-0.3304033279418945,-0.2428979873657226,-0.4082785546779632,22.374981201171874
1765999783578367700,27.83136767578125,-0.5034806728363037,-0.3417549133300781,-0.504217267036438,22.393760009765625
1765999783597146600,27.850146728515625,-0.4963252544403076,-0.2946014404296875,-0.5237596035003662,22.4125390625
1765999783615925500,27.868925537109376,-0.3698568344116211,-0.1530618667602539,-0.375341385602951,22.43131787109375
1765999783634704600,27.88770458984375,-0.1898765563964843,-0.0727224349975586,-0.1902393102645874,22.450096923828124
1765999783653483300,27.906483154296875,-0.0469412803649902,-0.0807399749755859,0.1085967719554901,22.46887548828125
1765999783672262400,27.925262451171875,-0.0887184143066406,-0.1070947647094726,0.5390937924385071,22.48765478515625
1765999783691041300,27.944041259765623,-0.0863804817199707,-0.1449193954467773,0.7119961380958557,22.506433593749996
1765999783709820200,27.96282006835937,-0.1447212696075439,-0.1637344360351562,0.9079853892326356,22.525212402343744
1765999783728599000,27.98159912109375,-0.3369691371917724,-0.08892822265625,1.048051834106445,22.543991455078125
1765999783747378000,28.0003779296875,-0.5689575672149658,-0.0794382095336914,0.9241448044776917,22.562770263671872
1765999783766156800,28.01915673828125,-0.5635673999786377,-0.1431970596313476,0.7223678827285767,22.581549072265624
1765999783784935700,28.037935791015624,-0.3783807754516601,-0.054539680480957,0.541559100151062,22.600328124999997
1765999783813104000,28.06610424804688,-0.2658877372741699,-0.1036796569824218,0.1697924435138702,22.628496582031254
1765999783831882800,28.0848828125,-0.1317348480224609,-0.1587800979614257,0.1571871638298034,22.647275146484372
1765999783850662000,28.103661865234372,-0.0846030712127685,-0.1314258575439453,-0.0181933343410491,22.666054199218745
1765999783869440800,28.122440673828127,0.0005631446838378,-0.1163873672485351,-0.2131901085376739,22.6848330078125
1765999783888219600,28.1412197265625,0.1691591739654541,-0.0052251815795898,-0.3345792591571808,22.703612060546874
1765999783906998500,28.15999853515625,0.3225488662719726,0.0396432876586914,-0.3235237002372741,22.722390869140625
1765999783925777400,28.17877734375,0.4857196807861328,-0.0041923522949218,-0.2964919507503509,22.741169677734373
1765999783944556300,28.197556396484377,0.5707155466079712,0.0031900405883789,-0.1891983449459076,22.75994873046875
1765999783963335200,28.216335205078124,0.3977469205856323,0.175201416015625,0.0142676532268524,22.778727539062498
1765999783982114000,28.235114013671875,0.3985565900802612,0.0501432418823242,0.0867863595485687,22.79750634765625
1765999784000893000,28.253892822265627,0.5529446601867676,-0.0340681076049804,0.0309537947177886,22.81628515625
1765999784019671800,28.272671875,0.9587564468383788,-0.0472679138183593,-0.0106177628040313,22.835064208984374
1765999784038450700,28.29145068359375,1.2221641540527344,-0.0191421508789062,0.0426076650619506,22.853843017578125
1765999784057229600,28.3102294921875,0.6328169107437134,-0.0073890686035156,0.084583967924118,22.872621826171873
1765999784076008400,28.32900854492188,0.0580834150314331,-0.2546644210815429,0.1982526779174804,22.891400878906254
1765999784094787300,28.347787353515624,-0.0110483169555664,-0.3028821945190429,0.4120151698589325,22.910179687499998
1765999784122955800,28.375955810546877,-0.0278533697128295,0.1573314666748047,0.6883021593093872,22.93834814453125
1765999784141734700,28.394734619140625,-0.2301617860794067,0.1930351257324218,0.5027399063110352,22.957126953124998
1765999784160513500,28.413513427734376,0.0817035436630249,-0.2131576538085937,0.3027136623859405,22.97590576171875
1765999784179292400,28.43229248046875,0.4319658279418945,-0.4129524230957031,0.1272331476211547,22.994684814453123
1765999784198071300,28.4510712890625,0.3792091608047485,-0.1524000167846679,-0.2181846052408218,23.013463623046874
1765999784216850200,28.46985009765625,0.45146644115448,-0.0480623245239257,-0.9250917434692384,23.032242431640622
1765999784235629000,28.488629150390626,0.743203341960907,-0.0467453002929687,-1.424655199050903,23.051021484375
1765999784254408000,28.507407958984373,0.6541321277618408,0.12103271484375,-1.3372697830200195,23.069800292968747
1765999784273186800,28.526186767578125,0.1512517929077148,0.2655420303344726,-0.3835117816925049,23.088579101562498
1765999784291965700,28.54496557617188,-0.2468512058258056,-0.0106821060180664,0.8415254354476929,23.107357910156253
1765999784310744600,28.56374462890625,-0.6664762496948242,-0.1410150527954101,1.563992619514465,23.126136962890623
1765999784329523500,28.5825234375,-0.0241254568099975,0.1737375259399414,0.7145558595657349,23.144915771484374
1765999784348302300,28.60130224609375,0.90649676322937,0.9005718231201172,-0.2455113977193832,23.163694580078122
1765999784367081200,28.62008129882813,1.4342379570007324,0.4770393371582031,-0.7444222569465637,23.182473632812503
1765999784385860000,28.638860107421877,1.6713393926620483,-0.4734735488891601,-0.4022779464721679,23.20125244140625
1765999784404639200,28.65763916015625,1.7099366188049316,-0.6886692047119141,0.2605181932449341,23.220031494140624
1765999784423418000,28.676418212890624,1.2084532976150513,-0.1837291717529297,0.9502819776535034,23.238810546874998
1765999784442197000,28.695197021484372,0.5671705007553101,0.160344123840332,1.0872766971588137,23.257589355468745
1765999784470365200,28.723365234375,0.6091808080673218,-0.3150711059570312,-0.0955441147089004,23.285757568359372
1765999784489144000,28.74214404296875,0.651789665222168,-0.1992130279541015,-0.0601556189358234,23.304536376953124
1765999784507923000,28.7609228515625,0.5686988830566406,-0.0374202728271484,0.537589430809021,23.323315185546875
1765999784545480700,28.798480712890623,0.2762140035629272,-0.0622034072875976,0.743577778339386,23.360873046874996
1765999784564259800,28.817259765625,-0.1974966526031494,-0.1360864639282226,0.2446796000003814,23.379652099609373
1765999784583038700,28.836038818359373,-0.4008784294128418,-0.2130088806152343,-0.3431563973426819,23.398431152343747
1765999784601817600,28.854817626953125,-0.2458326816558838,-0.2266674041748047,-0.1894483864307403,23.417209960937498
1765999784620596500,28.87359643554688,0.1493928432464599,-0.1918401718139648,0.307929664850235,23.435988769531253
1765999784639375400,28.892375244140624,0.0122005939483642,-0.035797119140625,1.0078016519546509,23.454767578124997
1765999784658154200,28.911154296875,-0.088367223739624,-0.0914821624755859,1.6887842416763306,23.473546630859374
1765999784676933000,28.92993310546875,-0.3981318473815918,-0.0503044128417968,2.111530303955078,23.492325439453122
1765999784695712000,28.9487119140625,-0.7889857292175293,0.1544637680053711,2.1639604568481445,23.511104248046873
1765999784714491000,28.967490966796877,-1.4149081707000732,0.7012052536010742,2.5363566875457764,23.52988330078125
1765999784733269800,28.986269775390625,-2.028080701828003,0.9747753143310548,2.8395895957946777,23.548662109374998
1765999784761438200,29.014438232421877,-1.7468366622924805,-0.3374290466308594,1.1213161945343018,23.57683056640625
1765999784780217000,29.033217041015625,-0.4215378761291504,-0.3443365097045898,0.1556369662284851,23.595609375
1765999784798996000,29.051995849609376,0.5901889801025391,1.1234722137451172,-0.7722717523574829,23.61438818359375
