time,seconds_elapsed,z,y,x,t
1765999765344109800,9.59710986328125,1.5287096500396729,-0.6152153015136719,-0.4377951323986053,4.159502197265626
1765999765362888400,9.615888427734374,1.4859161376953125,-0.6208400726318359,-1.2858530282974243,4.178280761718749
1765999765381667300,9.634667236328124,1.324981927871704,-0.1562976837158203,-0.894791305065155,4.197059570312499
1765999765400446200,9.6534462890625,0.6273009777069092,1.0187349319458008,0.1871431767940521,4.215838623046876
1765999765419224800,9.672224853515624,0.8834528923034668,2.597353935241699,2.3772518634796143,4.2346171875
1765999765438003700,9.691003662109376,2.020852565765381,3.900121688842773,5.167370796203613,4.253395996093751
1765999765456782600,9.709782470703123,1.8797929286956787,4.968117713928223,6.342043399810791,4.2721748046874986
1765999765475561200,9.728561279296876,0.0853452682495117,5.672948837280273,3.590539693832397,4.290953613281252
1765999765494340000,9.747340087890626,-2.085029125213623,5.454928398132324,1.6216305494308472,4.309732421875001
1765999765513119000,9.766118896484375,-2.2281014919281006,5.145170211791992,1.664913296699524,4.3285112304687505
1765999765531897600,9.784897705078125,-1.2558629512786863,4.923052787780762,2.630379676818848,4.3472900390625
1765999765550676500,9.803676513671874,-4.596721172332764,-1.6942224502563477,2.9284567832946777,4.3660688476562495
1765999765569455400,9.822455322265624,-9.680469512939451,1.4800481796264648,-4.986059665679932,4.384847656249999
1765999765588234000,9.84123388671875,-3.0889322757720947,9.601374626159668,-1.5108654499053955,4.403626220703126
1765999765607012900,9.860012939453124,2.70375394821167,-0.1638078689575195,5.15497636795044,4.4224052734375
1765999765625791700,9.878791748046876,3.5001721382141118,-1.4024028778076172,1.6230121850967407,4.441184082031251
1765999765644570400,9.8975703125,-1.9378066062927248,2.128774642944336,-2.9019453525543213,4.4599626464843745
1765999765663349200,9.916349365234376,-4.64462947845459,-1.769150733947754,-4.2241058349609375,4.478741699218752
1765999765682128100,9.935128173828126,-4.210097789764404,-4.640686988830566,-2.265995979309082,4.497520507812501
1765999765710296300,9.96329638671875,-4.954868316650391,-3.8771448135375977,1.289093255996704,4.5256887207031244
1765999765729075000,9.982074951171874,-5.293048858642578,-3.634756565093994,1.843300223350525,4.54446728515625
1765999765747853800,10.000853759765626,-4.763119697570801,-3.547724723815918,0.9890806674957277,4.563246093750001
1765999765766632700,10.0196328125,-4.384675025939941,-3.180517673492432,-0.5992562770843506,4.582025146484375
1765999765785411300,10.038411376953125,-3.890285015106201,-2.89859390258789,-1.7719736099243164,4.6008037109375
1765999765804190200,10.057190185546874,-3.861317873001098,-2.6773648262023926,-1.96107029914856,4.619582519531249
1765999765822969000,10.075968994140624,-4.655796527862549,-2.635613441467285,-1.356534719467163,4.638361328124999
1765999765851137300,10.10413720703125,-4.821780204772949,-2.751919746398926,0.3286870718002319,4.666529541015626
1765999765869916200,10.122916259765624,-4.591913223266602,-2.691955089569092,1.4244872331619265,4.685308593749999
1765999765888694800,10.14169482421875,-4.224893569946289,-2.2892651557922363,1.334526538848877,4.704087158203125
1765999765907473700,10.1604736328125,-3.736814975738525,-1.632699966430664,0.5232782363891602,4.722865966796876
1765999765926252500,10.17925244140625,-3.0458803176879883,-1.046377182006836,-0.0246564149856567,4.7416447753906255
1765999765945031200,10.19803125,-2.6183056831359863,-0.7251272201538086,-0.029927372932434,4.760423583984375
1765999765963810000,10.21681005859375,-2.515830993652344,-0.5045900344848633,0.0289578437805175,4.779202392578124
1765999765982588700,10.235588623046874,-2.375860929489136,-0.521519660949707,0.0284932851791381,4.79798095703125
1765999766001367600,10.254367431640626,-2.501758098602295,-0.2530660629272461,-0.2735129594802856,4.816759765625001
1765999766020146400,10.273146484375,-2.266152620315552,0.3094730377197265,-0.6531966924667358,4.835538818359375
1765999766038925300,10.29192529296875,-1.7573225498199463,0.7003164291381836,-0.6808685660362244,4.854317626953126
1765999766057704000,10.310703857421874,-1.460167646408081,0.59454345703125,-0.3032646477222442,4.873096191406249
1765999766076482800,10.32948291015625,-1.6006433963775637,0.2496719360351562,0.1316718161106109,4.891875244140625
1765999766095261700,10.34826171875,-1.3609740734100342,0.208287239074707,0.2139378786087036,4.910654052734376
1765999766114040300,10.367040283203124,-0.8316357135772705,0.9841833114624025,0.1414024233818054,4.9294326171875
1765999766132819200,10.385819091796876,-0.1659729480743408,2.0426387786865234,0.614161491394043,4.948211425781251
1765999766160987400,10.4139873046875,0.6949784755706787,2.0795469284057617,1.2892826795578003,4.976379638671876
1765999766179766300,10.432766357421874,0.4348981380462646,1.9802303314208984,1.0255311727523804,4.99515869140625
1765999766198545000,10.451544921875,-0.1396117210388183,2.7862367630004883,0.8164178133010864,5.013937255859375
1765999766217323800,10.47032373046875,2.298780918121338,5.1495466232299805,1.9062199592590328,5.032716064453126
1765999766236102700,10.4891025390625,7.724433898925781,5.539180755615234,-0.7993746399879456,5.051494873046876
1765999766254881300,10.50788134765625,9.139796257019045,5.281352043151856,-3.6201562881469727,5.070273681640625
1765999766273660200,10.52666015625,3.135274887084961,5.320390701293945,-2.9320030212402344,5.089052490234375
1765999766292439000,10.54543896484375,0.5974771976470947,2.5300216674804688,-2.8300530910491943,5.107831298828126
1765999766311218000,10.564218017578124,0.3788464069366455,-1.2111549377441406,-0.8562106490135193,5.1266103515624994
1765999766329996500,10.58299658203125,0.486746072769165,-3.535852432250977,-0.829422116279602,5.145388916015625
1765999766348775400,10.601775390625,2.0618317127227783,-2.385967254638672,-0.2685794234275818,5.164167724609376
1765999766367554300,10.62055419921875,3.0222086906433105,1.4501581192016602,0.2384184598922729,5.1829465332031255
1765999766386333200,10.639333251953126,3.01086950302124,3.665423393249512,-0.3015033006668091,5.201725585937501
1765999766405111800,10.65811181640625,3.520498275756836,2.489293098449707,-0.979624330997467,5.220504150390624
1765999766423890700,10.676890625,3.889756202697754,0.4989862442016601,-1.1424533128738403,5.239282958984376
1765999766442669600,10.695669677734376,3.74616813659668,-0.1757984161376953,-0.5022224187850952,5.258062011718751
1765999766461448200,10.7144482421875,2.621990203857422,-0.6289892196655273,0.4419960379600525,5.276840576171875
1765999766489616400,10.742616455078124,0.1815299987792968,-0.2348976135253906,0.0252186059951782,5.3050087890625
1765999766508395300,10.761395263671876,-2.8893117904663086,0.4848766326904297,0.7090414762496948,5.323787597656251
1765999766527174100,10.780174072265623,-4.489192008972168,0.7025575637817383,1.126694917678833,5.342566406249999
1765999766545953000,10.798953125,-2.977254629135132,-0.2872028350830078,1.817700743675232,5.361345458984376
1765999766564731600,10.817731689453124,-1.7677032947540283,-1.1450881958007812,2.375910758972168,5.380124023437499
1765999766583510500,10.836510498046875,-1.2393150329589844,-0.2986459732055664,2.5993101596832275,5.398902832031251
1765999766602289400,10.855289306640625,-0.8001556396484375,0.5695428848266602,2.3842053413391118,5.417681640625
1765999766621068000,10.874068115234374,-0.6076018810272217,0.5195541381835938,1.6120822429656982,5.43646044921875
1765999766639847000,10.892846923828126,-0.7040932178497314,0.2471456527709961,0.599500298500061,5.455239257812501
1765999766658625800,10.911625732421877,-0.4618701934814453,-0.2188806533813476,0.0947151780128479,5.474018066406252
1765999766677404400,10.930404296875,-0.562079668045044,-0.6532201766967773,0.0964839681982994,5.492796630859376
1765999766696183300,10.949183349609376,-0.3834891319274902,-0.7848167419433594,0.3588258326053619,5.511575683593751
1765999766714962200,10.967962158203123,-0.3756248950958252,-0.734278678894043,0.8087807297706604,5.530354492187499
1765999766733741000,10.986740966796877,-0.7046494483947754,-0.5834522247314453,0.719316840171814,5.549133300781252
1765999766752519700,11.005519775390624,-0.5704231262207031,-0.5195674896240234,-0.269770473241806,5.5679121093749995
1765999766771298600,11.024298583984375,0.4855234622955322,-0.4939870834350586,-1.5286033153533936,5.586690917968751
1765999766790077400,11.043077392578123,0.1747457981109619,-0.6313638687133789,-1.6696107387542725,5.605469726562498
1765999766808856000,11.06185595703125,-0.0382866859436035,-0.6194915771484375,-1.3531432151794434,5.6242482910156255
1765999766827635000,11.080635009765626,-0.1051490306854248,-0.5369462966918945,-1.2253170013427734,5.643027343750001
1765999766846413800,11.099413818359375,0.0080330371856689,-0.4469165802001953,-1.616997241973877,5.66180615234375
1765999766865192400,11.1181923828125,-0.3207941055297851,-0.2330732345581054,-1.3766489028930664,5.680584716796876
1765999766883971300,11.136971435546876,-1.0124690532684326,-0.0450658798217773,-0.8190110921859741,5.699363769531251
1765999766902750200,11.155750244140624,-0.8878726959228516,-0.1290702819824218,-0.6146765351295471,5.718142578124999
1765999766921528800,11.17452880859375,0.2434492111206054,0.1205024719238281,-0.6017388105392456,5.736921142578126
1765999766940307700,11.1933076171875,0.7320585250854492,0.4376468658447265,-1.3168940544128418,5.755699951171875
1765999766959086600,11.212086669921876,0.4857451915740967,0.2463703155517578,-1.153937816619873,5.774479003906251
1765999766977865500,11.230865478515623,-0.1463549137115478,0.7806119918823242,-0.8892971873283386,5.7932578124999985
1765999766996644000,11.24964404296875,-0.298440933227539,0.7393207550048828,-0.4087928533554077,5.812036376953126
1765999767015423000,11.268423095703126,-0.5255520343780518,0.2472925186157226,0.1867713332176208,5.830815429687501
1765999767034201900,11.287201904296875,-0.3896162509918213,-0.2667264938354492,0.1956056952476501,5.8495942382812505
1765999767052980500,11.30598046875,0.5351498126983643,-0.276824951171875,0.1209686696529388,5.868372802734376
1765999767071759400,11.32475927734375,1.0284072160720823,-0.0863323211669921,-0.8607617616653442,5.887151611328125
1765999767090538200,11.343538330078124,2.0773816108703613,0.3930616378784179,-2.992123603820801,5.905930664062499
1765999767109317000,11.362317138671877,3.003035306930542,0.7219076156616211,-4.677648544311523,5.924709472656252
1765999767128095700,11.381095703125,2.665438175201416,1.6703252792358398,-6.952428817749023,5.9434880371093755
1765999767146874600,11.39987451171875,0.90846848487854,1.3211116790771484,-6.582711696624756,5.962266845703125
1765999767165653500,11.418653564453123,-0.9012784957885742,0.7801218032836914,-5.309038639068604,5.981045898437499
1765999767184432000,11.43743212890625,-0.778221845626831,0.6183567047119141,-3.6575212478637695,5.999824462890626
1765999767203211000,11.4562109375,-0.8316652774810791,-0.4551172256469726,-0.6571800708770752,6.018603271484375
1765999767221990000,11.474989990234375,-2.340181827545166,-1.8036909103393557,1.6357672214508057,6.0373823242187505
1765999767240768800,11.493768798828125,-3.813932418823242,-2.7616963386535645,1.886215090751648,6.0561611328125
1765999767259547400,11.51254736328125,-3.6523420810699454,-3.244482517242432,0.9563981294631958,6.074939697265625
1765999767278326300,11.531326171875,-2.0626399517059326,-3.095737934112549,0.7140356302261353,6.093718505859375
1765999767297105200,11.550105224609377,-0.873396635055542,-2.750807762145996,0.8378914594650269,6.112497558593752
1765999767315883800,11.5688837890625,-0.2190886735916137,-1.7843036651611328,1.0574579238891602,6.1312761230468755
1765999767334662700,11.58766259765625,0.6952172517776489,-0.5214643478393555,1.4305415153503418,6.150054931640625
1765999767353441500,11.606441650390623,1.6996864080429075,0.026686668395996,1.715239405632019,6.168833984374999
1765999767372220200,11.62522021484375,2.302297830581665,-0.284433364868164,1.3231768608093262,6.187612548828126
