time,seconds_elapsed,z,y,x,t
1765999764379349000,8.632348876953126,0.2202167510986328,0.6538543701171875,1.4718023538589478,3.145446777343751
1765999764398127900,8.6511279296875,0.2040288299322128,0.630946934223175,1.6283364295959473,3.1642258300781245
1765999764416906800,8.66990673828125,0.2220493406057357,0.5510764122009277,1.7375285625457764,3.1830046386718758
1765999764435685400,8.688685302734376,0.2431241869926452,0.4186714589595794,1.8079307079315183,3.201783203125001
1765999764454464300,8.70746435546875,0.1844811588525772,0.297872930765152,1.866573691368103,3.2205622558593747
1765999764473243100,8.7262431640625,0.0430659651756286,0.2897789776325226,1.871460556983948,3.239341064453126
1765999764492021800,8.745021728515624,-0.1000291109085083,0.4160752594470978,1.7922009229660034,3.2581196289062495
1765999764510800600,8.763800537109375,-0.1824958473443985,0.5807033181190491,1.7059162855148315,3.2768984375000008
1765999764529579500,8.78257958984375,-0.2428187429904937,0.6498837471008301,1.5603777170181274,3.295677490234376
1765999764548358100,8.801358154296874,-0.3153589367866516,0.7178424596786499,1.3525309562683103,3.3144560546874997
1765999764567137000,8.820136962890626,-0.3961458206176758,0.6766090989112854,1.128801703453064,3.333234863281251
1765999764585916000,8.838916015625,-0.467006117105484,0.5535198450088501,0.8676570653915405,3.3520139160156246
1765999764604694500,8.857694580078125,-0.4889972507953644,0.2974147796630859,0.6387354731559753,3.37079248046875
1765999764623473400,8.876473388671876,-0.4453204274177551,-0.0327576249837875,0.4172970056533813,3.389571289062501
1765999764642252300,8.895252197265625,-0.4210385382175445,-0.3381900191307068,0.1547778695821762,3.4083500976562506
1765999764661031000,8.914031005859375,-0.4703658819198608,-0.6986002326011658,-0.1419496983289718,3.42712890625
1765999764679809800,8.932809814453124,-0.602007269859314,-0.91362464427948,-0.4547124803066253,3.4459077148437496
1765999764698588400,8.95158837890625,-0.689513623714447,-0.9820414781570436,-0.7480802536010742,3.464686279296875
1765999764717367300,8.9703671875,-0.7076868414878845,-0.8650608658790588,-1.0044907331466677,3.483465087890626
1765999764736146200,8.989146240234374,-0.3553705811500549,-0.6575195789337158,-0.9905936121940612,3.502244140625
1765999764754925000,9.007925048828126,0.6684387922286987,-0.2632063627243042,-0.7836631536483765,3.521022949218751
1765999764773703700,9.02670361328125,0.8984293937683105,0.1416442692279815,-0.7099012136459351,3.5398015136718746
1765999764792482600,9.045482666015625,0.013439024798572,-0.1060613989830017,-0.3287216126918793,3.55858056640625
1765999764811261400,9.064261474609374,-0.4358520209789276,-0.1924987584352493,-0.2735910713672638,3.5773593749999995
1765999764830040000,9.0830400390625,-0.2955058515071869,0.2386190593242645,-0.3041343092918396,3.5961379394531248
1765999764848819000,9.10181884765625,0.0827721804380416,0.5290852785110474,-0.3856847584247589,3.614916748046876
1765999764867597800,9.120597900390624,0.1027780026197433,0.7314342260360718,-0.4224893450736999,3.6336958007812497
1765999764886376400,9.13937646484375,-0.0383317656815052,0.7926734089851379,-0.3986656367778778,3.652474365234375
1765999764905155300,9.1581552734375,-0.0636826530098915,0.770529568195343,-0.3087157905101776,3.6712531738281244
1765999764923934200,9.176934326171876,-0.0090102553367614,0.6550761461257935,-0.2059377878904342,3.6900322265625016
1765999764942712800,9.195712890625,0.0270307660102844,0.2990946769714355,-0.1372154951095581,3.708810791015625
1765999764961491700,9.21449169921875,-0.0120645789429545,-0.0695622265338897,-0.1121700480580329,3.7275895996093746
1765999764980270600,9.2332705078125,-0.1021671369671821,-0.1065195426344871,-0.1104901656508445,3.746368408203126
1765999764999049200,9.25204931640625,-0.1629481762647628,0.0516944304108619,-0.0994945988059043,3.7651472167968754
1765999765017828000,9.270828125,-0.2182314395904541,0.1937204897403717,-0.1020907759666442,3.783926025390625
1765999765045996300,9.298996337890625,-0.3203985691070556,0.073380134999752,-0.1471420526504516,3.81209423828125
1765999765064775200,9.317775146484376,-0.3494146466255188,-0.0342847853899002,-0.1801287531852722,3.830873046875001
1765999765083553800,9.3365537109375,-0.3249800503253937,-0.0061850058846175,-0.1647044122219085,3.8496516113281247
1765999765102332700,9.355332763671877,-0.2432768940925598,-0.0231365039944648,-0.0822376683354377,3.868430664062502
1765999765121111600,9.374111572265624,-0.1550069451332092,-0.1862373948097229,0.0184023007750511,3.8872094726562496
1765999765139890400,9.392890380859376,-0.0368046015501022,-0.4311941862106323,0.1850156635046005,3.905988281250001
1765999765158669000,9.4116689453125,0.1430950760841369,-0.5161044001579285,0.4318050444126129,3.924766845703126
1765999765186837200,9.439837158203124,0.526870846748352,-0.4957931339740753,0.854218065738678,3.9529350585937495
1765999765205616000,9.4586162109375,0.7994692921638489,-0.5924624800682068,1.0316742658615112,3.971714111328125
1765999765224395000,9.47739501953125,0.9451605081558228,-0.8102357983589172,1.099327564239502,3.990492919921876
1765999765243173600,9.496173583984374,0.9126319885253906,-0.8665880560874939,1.1054362058639526,4.009271484375
1765999765261952500,9.514952392578126,0.7373138070106506,-0.6471349000930786,1.1136828660964966,4.028050292968751
1765999765280731400,9.5337314453125,0.4915934205055237,-0.1851683855056762,1.0831396579742432,4.046829345703125
1765999765299510000,9.552510009765625,0.3165806829929352,0.2514472007751465,1.007086992263794,4.06560791015625
1765999765318289000,9.571288818359376,0.171653002500534,0.3823249936103821,0.8630755543708801,4.084386718750001
1765999765337067800,9.59006787109375,-0.1574503928422927,0.2503781914710998,0.720285952091217,4.103165771484375
1765999765355846400,9.608846435546877,-0.5803215503692627,-0.1246927753090858,0.4537961781024933,4.121944335937502
1765999765374625300,9.627625244140624,-1.0302234888076782,-0.5837576389312744,0.1427132785320282,4.14072314453125
1765999765393404200,9.646404052734376,-1.3927717208862305,-0.8189405798912048,-0.2535852491855621,4.159501953125001
1765999765412182800,9.665182861328123,-1.6931644678115845,-0.687451958656311,-0.7367792725563049,4.1782807617187485
1765999765430961700,9.683961669921874,-1.9992077350616453,-0.4551706314086914,-1.2387573719024658,4.1970595703125
1765999765449740500,9.702740478515626,-2.2699735164642334,-0.1469893306493759,-1.6443716287612915,4.215838378906251
1765999765468519200,9.721519287109375,-2.2957825660705566,0.1755472719669342,-2.1602468490600586,4.2346171875000005
1765999765487298000,9.740298095703125,-2.050673007965088,0.2030361741781234,-2.909778118133545,4.25339599609375
1765999765506077000,9.759076904296874,-1.732717990875244,-0.4223366379737854,-3.790950536727905,4.272174804687499
1765999765524855600,9.77785546875,-1.4619520902633667,-1.2204314470291138,-4.493139743804932,4.290953369140625
1765999765543634400,9.796634521484377,-1.2680025100708008,-2.0757949352264404,-3.868683099746704,4.309732421875002
1765999765562413300,9.815413330078124,-1.366657257080078,-1.8422918319702148,-2.926424026489258,4.32851123046875
1765999765581192000,9.83419189453125,-0.7990111112594604,-0.428139865398407,-3.935420036315918,4.347289794921875
1765999765599970800,9.852970703125,0.2515235841274261,-0.1175151094794273,-3.792477607727051,4.366068603515624
1765999765618749700,9.871749755859376,-0.0665842592716217,-0.4858665764331817,-3.39312481880188,4.384847656250002
1765999765637528300,9.8905283203125,0.0760526657104492,-1.736764907836914,-2.809443473815918,4.403626220703125
1765999765656307200,9.90930712890625,0.4402807950973511,-2.1875832080841064,-2.2711188793182373,4.422405029296875
1765999765675086000,9.928086181640625,0.6067414283752441,-1.9464442729949951,-1.672318696975708,4.44118408203125
1765999765693865000,9.946864990234374,0.652556300163269,-1.2466986179351809,-0.941113531589508,4.4599628906249995
1765999765712643600,9.9656435546875,0.6145299673080444,-0.1028543561697006,-0.2818377315998077,4.478741455078125
1765999765731422500,9.98442236328125,0.5297724604606628,0.9427934288978576,0.1628718227148056,4.497520263671876
1765999765750201000,10.003201171875,0.4920515716075897,1.461264967918396,0.5177842378616333,4.5162990722656255
1765999765768980000,10.02197998046875,0.5943714380264282,1.3911681175231934,0.8302416205406189,4.535077880859375
1765999765787758800,10.0407587890625,0.7275399565696716,0.9313397407531738,1.123304009437561,4.5538566894531245
1765999765806537700,10.059537841796876,0.8527672290802002,0.4087449014186859,1.4258347749710083,4.572635742187502
1765999765825316400,10.07831640625,0.9552397727966307,0.1559995859861374,1.686215877532959,4.591414306640625
1765999765853484500,10.106484619140623,1.0511455535888672,0.3372737169265747,2.0150139331817627,4.6195825195312485
1765999765872263400,10.125263427734374,1.0022764205932615,0.5831468105316162,2.217210054397583,4.638361328125
1765999765891042300,10.144042236328126,0.9356921315193176,0.812221109867096,2.3968043327331543,4.657140136718751
1765999765909821000,10.162821044921875,0.9114102721214294,0.9640209674835204,2.544328212738037,4.6759189453125005
1765999765928599800,10.181599853515625,0.9060651659965516,0.977154552936554,2.6577963829040527,4.69469775390625
1765999765947378700,10.200378662109374,0.8736893534660339,0.9058361053466796,2.7576727867126465,4.7134765624999995
1765999765966157300,10.2191572265625,0.8002328872680664,0.8128319382667542,2.8089852333068848,4.732255126953125
1765999765984936200,10.237936279296877,0.699287474155426,0.7810669541358948,2.8135669231414795,4.751034179687502
1765999766003715000,10.256715087890624,0.6255255341529846,0.7549524903297424,2.73140549659729,4.76981298828125
1765999766022493700,10.27549365234375,0.5636754631996155,0.6911171674728394,2.5594470500946045,4.788591552734375
1765999766041272600,10.2942724609375,0.4792234301567077,0.4738020002841949,2.339383125305176,4.8073703613281245
1765999766060051500,10.313051513671876,0.3346011936664581,0.183030366897583,2.064646482467652,4.826149414062502
1765999766078830000,10.331830078125,0.1676823794841766,-0.0475710928440094,1.732641577720642,4.844927978515625
1765999766097609000,10.35060888671875,0.0707075968384742,-0.2059377878904342,1.4068979024887085,4.863706787109375
1765999766116387800,10.369387939453125,0.0664315447211265,-0.2445749789476394,1.073060393333435,4.88248583984375
1765999766135166500,10.38816650390625,0.0603228956460952,-0.2826013267040252,0.7366265654563904,4.901264404296875
1765999766153945300,10.4069453125,0.0923933014273643,-0.3578903973102569,0.4625009894371032,4.920043212890625
1765999766172724200,10.42572412109375,0.153174340724945,-0.4470766484737396,0.2117410004138946,4.938822021484376
1765999766191502800,10.4445029296875,0.1791360974311828,-0.4206567704677582,-0.1352301836013794,4.957600830078126
1765999766210281700,10.46328173828125,-0.0224492810666561,-0.1398116797208786,-1.0151809453964231,4.976379638671875
1765999766229060600,10.482060546875,-0.4361574649810791,-0.5222130417823792,-1.6842305660247805,4.9951584472656245
1765999766247839500,10.500839599609376,-0.1018617004156112,-0.9707404971122742,-1.2914445400238037,5.013937500000002
1765999766266618000,10.5196181640625,0.1441640853881836,-0.7367792725563049,-0.7108175158500671,5.032716064453125
1765999766285397000,10.53839697265625,-0.0230601448565721,-0.091400645673275,-0.4878518879413605,5.051494873046875
1765999766304175900,10.55717578125,-0.1061377525329589,0.4255436658859253,-0.3841575980186462,5.070273681640626
1765999766322954500,10.57595458984375,-0.0224492810666561,0.6723330616950989,-0.2693150043487549,5.0890524902343754
1765999766341733400,10.5947333984375,0.1808159798383712,0.4762454628944397,-0.2974147796630859,5.107831298828125
1765999766360512300,10.61351220703125,0.3623955249786377,-0.073380134999752,-0.3100902438163757,5.126610107421876
1765999766379291000,10.632290771484374,0.3720166385173797,-0.3533089160919189,-0.1729510873556137,5.145388671875
1765999766398069800,10.65106982421875,0.333684891462326,-0.3058141767978668,0.0194713156670331,5.164167724609375
