time,seconds_elapsed,z,y,x,t
1766000561727281400,14.128281494140625,-0.2113714218139648,-1.7473716735839844,3.77824068069458,11.117962158203124
1766000561746061800,14.147061767578125,-0.883695125579834,-1.4111618995666504,3.935429573059082,11.136742431640624
1766000561764842200,14.16584228515625,-2.1358938217163086,-1.4633102416992188,2.8940887451171875,11.15552294921875
1766000561783622400,14.184622314453126,-1.978675842285156,-1.6636652946472168,1.2729995250701904,11.174302978515625
1766000561802402800,14.20340283203125,-1.607595443725586,-0.5716152191162109,-1.287554383277893,11.193083496093749
1766000561821183200,14.222183349609375,-0.8672761917114258,0.2978825569152832,-1.977262020111084,11.211864013671875
1766000561839963600,14.240963623046875,-0.4886054992675781,0.7814335823059082,-0.8248592615127563,11.230644287109374
1766000561858744000,14.259744140625,-0.2695283889770508,1.5737524032592771,-0.7880853414535522,11.249424804687498
1766000561877524500,14.2785244140625,0.1609077453613281,1.7501039505004885,-1.453644633293152,11.268205078125
1766000561896305000,14.297304931640625,0.7186112403869629,1.9972648620605469,-1.7430273294448853,11.286985595703124
1766000561915085000,14.3160849609375,1.2346858978271484,2.45184326171875,-1.9560738801956177,11.305765625
1766000561933865500,14.334865478515624,1.59586763381958,2.8990159034729004,-2.221209764480591,11.324546142578123
1766000561952646000,14.35364599609375,1.778547286987305,3.137023448944092,-2.207231044769287,11.343326660156249
1766000561971426300,14.37242626953125,1.9451723098754885,3.3198275566101074,-2.222588062286377,11.362106933593749
1766000561990206700,14.391206787109375,2.0651512145996094,3.3334760665893555,-2.267606258392334,11.380887451171875
1766000562008987100,14.409987060546875,2.5378293991088867,3.360511779785156,-2.546746015548706,11.399667724609374
1766000562027767600,14.428767578125,2.8929672241210938,3.3756542205810547,-2.658461332321167,11.4184482421875
1766000562046548000,14.4475478515625,2.9647111892700195,3.128211975097656,-2.564971685409546,11.437228515625
1766000562065328000,14.466328125,3.14748764038086,3.1527371406555176,-2.145415544509888,11.4560087890625
1766000562084108500,14.485108642578124,3.0423054695129395,3.182565689086914,-1.6581684350967407,11.474789306640623
1766000562102889000,14.503888916015624,2.683051109313965,3.0243635177612305,-1.2554514408111572,11.493569580078123
1766000562121669400,14.52266943359375,2.266918659210205,2.736480712890625,-0.9688048362731934,11.512350097656249
1766000562140449800,14.54144970703125,1.8115234375,2.3862128257751465,-0.9093226194381714,11.531130371093749
1766000562159230200,14.560230224609375,1.7836604118347168,2.0140438079833984,-0.8473048806190491,11.549910888671874
1766000562178010600,14.5790107421875,1.8940668106079104,1.6629114151000977,-1.1490936279296875,11.568691406249998
1766000562196791000,14.597791015625,1.8732833862304688,1.5950074195861816,-1.253881335258484,11.5874716796875
1766000562215571200,14.6165712890625,1.5556344985961914,1.3030180931091309,-0.9118825197219848,11.606251953125
1766000562234351600,14.6353515625,1.001706600189209,0.9195103645324708,-0.5633033514022827,11.6250322265625
1766000562253132000,14.654132080078124,0.6364545822143555,0.5988302230834961,-0.5668648481369019,11.643812744140623
1766000562271912400,14.672912353515626,0.4496374130249023,0.3272972106933594,-0.5524771213531494,11.662593017578125
1766000562290692900,14.69169287109375,-0.1500401496887207,0.1454334259033203,0.338317334651947,11.681373535156249
1766000562309473300,14.710473388671875,-0.8415412902832031,-0.2878026962280273,1.6128315925598145,11.700154052734375
1766000562328253700,14.729253662109375,-1.0445218086242676,-0.4883193969726562,2.568617820739746,11.718934326171874
1766000562356424200,14.757424072265623,-0.9430315494537354,-3.5404529571533203,2.568617820739746,11.747104736328122
1766000562375204600,14.77620458984375,-0.20288968086242676,-3.5404529571533203,2.568617820739746,11.76588525390625
1766000562393985000,14.794985107421876,0.5214688777923584,-6.6910600662231445,4.176605224609375,11.784665771484375
1766000562412765400,14.813765380859374,0.6387424468994141,-2.598292350769043,-4.265357494354248,11.803446044921873
1766000562431545900,14.8325458984375,0.4041953086853027,-2.598292350769043,-2.977428436279297,11.8222265625
1766000562450326000,14.851325927734376,0.0605778694152832,1.6150312423706057,2.03735613822937,11.841006591796875
1766000562469106400,14.8701064453125,-0.4999847412109375,-1.9044651985168457,5.138138294219971,11.859787109374999
1766000562487886800,14.888886962890624,-0.8499617576599121,-3.711268901824951,3.636208057403565,11.878567626953123
1766000562506667300,14.907667236328123,-1.5164847373962402,-2.412661552429199,1.1021360158920288,11.897347900390622
1766000562525447700,14.92644775390625,-1.0643548965454102,-2.0477209091186523,-0.3768248260021209,11.91612841796875
1766000562544228000,14.94522802734375,-0.2222218513488769,-2.496373176574707,-1.8353668451309204,11.93490869140625
1766000562563008500,14.964008544921874,-0.2888588905334472,-1.9921603202819824,-2.769057273864746,11.953689208984374
1766000562581789000,14.982788818359374,-0.5983486175537109,-0.950913429260254,-0.8164681196212769,11.972469482421873
1766000562600569300,15.0015693359375,-0.8559794425964355,-0.6328773498535156,0.5872906446456909,11.991249999999999
1766000562619349500,15.020349609375,-0.7064013481140137,-0.6490144729614258,0.5449832677841187,12.010030273437499
1766000562638130000,15.0391298828125,0.2564706802368164,-0.5146341323852539,-0.5192065238952637,12.028810546874999
1766000562656910300,15.057910400390623,0.9392800331115724,-0.649137020111084,-1.64468514919281,12.047591064453123
1766000562675690800,15.076690673828123,0.827204704284668,-0.3024616241455078,-1.447319507598877,12.066371337890622
1766000562694471200,15.09547119140625,0.5173077583312988,-0.0396318435668945,-0.6115174889564514,12.08515185546875
1766000562713251600,15.11425146484375,0.6331806182861328,0.1104087829589843,0.2239030599594116,12.10393212890625
1766000562732032000,15.133031982421874,0.9665048122406006,0.306650161743164,0.7296913266181946,12.122712646484374
1766000562760202500,15.161202392578126,1.1592726707458496,0.16558837890625,0.595833420753479,12.150883056640625
1766000562778983000,15.17998291015625,1.4048638343811035,-0.1150627136230468,-0.2124857902526855,12.169663574218749
1766000562797763300,15.198763427734375,1.342447280883789,-0.2049446105957031,-0.3950761556625366,12.188444091796875
1766000562816543700,15.217543701171875,1.3128368854522705,0.1471452713012695,-0.1698597371578216,12.207224365234374
1766000562835324200,15.23632421875,1.4038589000701904,0.702728271484375,0.3286720216274261,12.226004882812498
1766000562854104600,15.2551044921875,1.4432175159454346,1.1741228103637695,0.9154509902000428,12.24478515625
1766000562872885000,15.273885009765625,1.5549085140228271,1.584843635559082,1.1145875453948977,12.263565673828124
1766000562891665400,15.29266552734375,1.408262848854065,1.83112907409668,0.8656790852546692,12.28234619140625
1766000562910445800,15.31144580078125,1.435865879058838,1.9531450271606443,0.5531670451164246,12.30112646484375
1766000562929226200,15.330226318359376,0.9537940621376038,1.6230897903442385,0.7687820196151733,12.319906982421875
1766000562948006700,15.349006591796876,1.1657434701919556,1.783550262451172,0.5270020961761475,12.338687255859375
1766000562966787000,15.367787109375,0.6882505416870117,1.1975946426391602,1.091075420379639,12.357467773437499
1766000562994957800,15.395957763671875,-0.1331764757633209,0.4863195419311523,2.481575489044189,12.385638427734374
1766000563013738200,15.41473828125,-0.6321760416030884,-0.270050048828125,2.560667037963867,12.404418945312498
1766000563032518700,15.4335185546875,-0.5636087656021118,-0.0760250091552734,3.1189615726470947,12.42319921875
1766000563051299000,15.452299072265625,0.411708116531372,0.3081989288330078,3.563422203063965,12.441979736328124
1766000563070079200,15.471079345703124,2.109092712402344,1.0366477966308594,0.3181101083755493,12.460760009765623
1766000563088859600,15.489859619140624,3.0904126167297363,1.2153692245483398,-3.1222634315490723,12.479540283203123
1766000563107640000,15.50864013671875,1.7586278915405271,0.9696741104125975,-2.12129545211792,12.498320800781249
1766000563126420500,15.52742041015625,0.1088783740997314,0.4582471847534179,-0.6472030878067017,12.517101074218749
1766000563145201000,15.546200927734375,-0.8705437183380127,0.3850345611572265,-1.604708194732666,12.535881591796874
1766000563163981300,15.564981201171875,-0.9119501113891602,0.1701240539550781,-2.2677364349365234,12.554661865234374
1766000563182761700,15.58376171875,-0.6967092156410217,-0.3040084838867187,-2.322817325592041,12.5734423828125
1766000563201542100,15.602542236328125,-0.3335624933242798,0.0040807723999023,-2.4394431114196777,12.592222900390624
1766000563220322600,15.621322509765625,-0.1376065015792846,-0.1679897308349609,-1.439012050628662,12.611003173828124
1766000563239103000,15.64010302734375,0.2903227806091308,-0.2587671279907226,0.0352181196212768,12.62978369140625
1766000563257883400,15.65888330078125,0.8520573377609253,-0.2807836532592773,0.6863025426864624,12.64856396484375
1766000563286054100,15.68705419921875,1.2610522508621216,0.2234277725219726,0.0832619667053222,12.676734863281249
1766000563304834600,15.70583447265625,0.9913491010665894,0.1856060028076172,-0.7581865787506104,12.695515136718749
1766000563323615000,15.724614990234375,0.4797288179397583,-0.0785512924194336,-0.8557021617889404,12.714295654296874
1766000563342395400,15.7433955078125,0.4375917911529541,-0.1822891235351562,-0.3760601282119751,12.733076171874998
1766000563361175800,15.76217578125,0.8109548091888428,0.0643110275268554,-0.4526625871658325,12.7518564453125
1766000563389346300,15.79034619140625,1.0244879722595217,0.0006637573242187,-0.8902889490127563,12.78002685546875
1766000563408126700,15.809126708984374,0.7236267328262329,-0.2931280136108398,-0.3013868331909179,12.798807373046873
1766000563426907100,15.8279072265625,0.6361402273178101,0.0595855712890625,0.5033208131790161,12.817587890625
1766000563445687600,15.8466875,0.7666815519332886,0.2256069183349609,0.3745330572128296,12.836368164062499
1766000563464468000,15.865468017578126,0.7659816741943359,0.0713720321655273,-0.1769531965255737,12.855148681640625
1766000563483248400,15.884248291015624,0.418749451637268,0.0253381729125976,-0.1477444171905517,12.873928955078123
1766000563502028800,15.90302880859375,0.0385808944702148,0.1674118041992187,0.1731914281845092,12.892709472656248
1766000563520809200,15.921809326171877,0.1408075094223022,0.0254936218261718,0.0047807693481445,12.911489990234376
1766000563539589600,15.940589599609376,0.1587896347045898,0.0355310440063476,0.187781274318695,12.930270263671876
1766000563558370000,15.9593701171875,-0.0552049875259399,0.0358953475952148,0.5587068796157837,12.94905078125
1766000563577150500,15.978150390625,-0.0353294610977172,0.0318231582641601,0.5120358467102051,12.9678310546875
1766000563595931000,15.996930908203124,-0.1336898803710937,0.1077680587768554,0.5858662128448486,12.986611572265623
1766000563614711300,16.015711181640626,-0.084579586982727,0.1090192794799804,0.2409127950668335,13.005391845703125
1766000563642881800,16.0438818359375,-0.2132024765014648,0.0941314697265625,0.2156723737716674,13.0335625
1766000563661662200,16.062662109375,-0.0516325235366821,0.0247602462768554,-0.047467291355133,13.0523427734375
1766000563689833000,16.0908330078125,0.1017237901687622,0.0512123107910156,0.0477912425994873,13.080513671874998
1766000563708613400,16.10961328125,0.076795220375061,0.02685546875,0.1013014912605285,13.0992939453125
1766000563727393800,16.128393798828125,0.0908986330032348,0.0127410888671875,-0.0772348046302795,13.118074462890625
1766000563746174200,16.14717431640625,0.1404943466186523,0.0438499450683593,-0.0398343205451965,13.136854980468751
1766000563764954400,16.165954345703124,0.1391133069992065,0.0329914093017578,-0.1494569778442382,13.155635009765625
