time,seconds_elapsed,z,y,x,t
1766000557680111600,10.081111572265623,-1.222245216369629,-0.9706573486328124,1.2049360275268557,7.070792236328122
1766000557698892000,10.09989208984375,-0.9147868156433104,-0.7842903137207031,0.9522383213043212,7.08957275390625
1766000557717672400,10.11867236328125,-1.1235685348510742,-1.1184730529785156,1.7406306266784668,7.10835302734375
1766000557736452600,10.13745263671875,-6.907018184661865,-4.5859575271606445,8.901248931884766,7.127133300781249
1766000557755233000,10.15623291015625,-2.222078323364258,2.058762550354004,8.474292755126953,7.145913574218749
1766000557774013400,10.175013427734376,-3.3205881118774414,-1.879769325256348,7.989193439483643,7.164694091796875
1766000557792793900,10.1937939453125,1.2144050598144531,-5.163763523101807,0.5373767614364624,7.183474609374999
1766000557811574000,10.212573974609375,1.6112771034240725,-3.9810776710510254,-1.886964201927185,7.202254638671874
1766000557830354400,10.2313544921875,-0.1912660598754882,-2.314713954925537,1.2398240566253662,7.221035156249998
1766000557849134800,10.250134765625,-0.5352120399475098,-1.0567712783813477,2.7597815990448,7.2398154296875
1766000557867915300,10.268915283203125,-0.3775868415832519,-1.897110939025879,3.740922212600708,7.258595947265624
1766000557886695400,10.2876953125,-1.274397373199463,-2.0530271530151367,1.8549219369888303,7.2773759765624995
1766000557905475800,10.306475830078124,-1.0902328491210938,-2.200326919555664,1.103912591934204,7.296156494140623
1766000557924256300,10.32525634765625,-0.6139340400695801,-1.946925163269043,0.22320556640625,7.314937011718749
1766000557943036700,10.34403662109375,-0.6916699409484863,-0.6491961479187012,-0.1102380752563476,7.333717285156249
1766000557961817000,10.362817138671875,-0.721160888671875,-0.1997485160827636,0.4397803544998169,7.352497802734375
1766000557980597200,10.38159716796875,-0.6509857177734375,-0.3895564079284668,0.1494618654251098,7.371277832031248
1766000557999377700,10.400377685546877,-0.3535947799682617,-0.0634012222290039,-0.705260694026947,7.390058349609376
1766000558018158000,10.419157958984377,0.0674848556518554,0.3673791885375976,-1.1301214694976809,7.408838623046876
1766000558036938500,10.4379384765625,0.4571914672851562,0.6009984016418457,-1.117809534072876,7.427619140625
1766000558055718700,10.45671875,0.6805949211120605,1.1313347816467283,-0.9821239113807678,7.446399414062499
1766000558074499000,10.4754990234375,0.9513001441955566,1.6042070388793943,-0.9438416957855223,7.465179687499999
1766000558093279500,10.494279541015626,1.1248602867126465,1.815821647644043,-1.0986661911010742,7.483960205078125
1766000558112060000,10.513059814453126,1.366136074066162,2.261709213256836,-1.3129264116287231,7.502740478515625
1766000558140230400,10.54123046875,1.6602463722229004,3.109683036804199,-1.404952049255371,7.5309111328124985
1766000558159010800,10.5600107421875,1.8763880729675293,3.084956169128418,-1.7332264184951782,7.549691406249998
1766000558177791000,10.578791015625,2.246809482574463,3.244826316833496,-2.1016533374786377,7.5684716796875
1766000558196571400,10.5975712890625,2.421142578125,3.324319362640381,-2.2316341400146484,7.587251953125
1766000558215351800,10.616351806640624,2.466855049133301,3.440596103668213,-2.033862352371216,7.6060324707031235
1766000558234132200,10.63513232421875,2.1652703285217285,3.238236904144287,-1.8526041507720947,7.624812988281249
1766000558262302700,10.663302734375,1.995436191558838,2.967087745666504,-1.78976309299469,7.652983398437499
1766000558281083100,10.682083251953124,1.890498161315918,2.915656566619873,-1.6805447340011597,7.671763916015623
1766000558299863300,10.70086328125,1.742300510406494,2.4324545860290527,-1.603376388549805,7.690543945312498
1766000558318643700,10.719643798828123,1.6436381340026855,1.989203929901123,-1.5974600315093994,7.709324462890622
1766000558337424100,10.738424072265625,1.4549622535705566,1.5999021530151367,-1.3042545318603516,7.728104736328124
1766000558356204500,10.75720458984375,1.2417826652526855,1.1312990188598633,-0.9560155868530272,7.74688525390625
1766000558374985000,10.77598486328125,0.9500489234924316,0.9246482849121094,-0.508544921875,7.765665527343749
1766000558393765000,10.79476513671875,0.4625425338745117,0.4455394744873047,-0.0412690639495849,7.784445800781249
1766000558412545500,10.813545654296876,0.0874590873718261,-0.124826431274414,0.2822409272193908,7.803226318359375
1766000558431326000,10.832325927734376,-0.4531149864196777,-0.5419473648071289,0.6433536410331726,7.822006591796875
1766000558450106400,10.8511064453125,-0.9873204231262208,-0.995203971862793,1.1703414916992188,7.840787109374999
1766000558468886800,10.86988671875,-1.46502423286438,-1.094041347503662,2.264999389648437,7.859567382812498
1766000558487667000,10.8886669921875,-4.376173973083496,-4.616783142089844,7.729629039764404,7.87834765625
1766000558506447400,10.907447265625,-2.920599102973938,-1.6983108520507812,11.463560104370115,7.8971279296875
1766000558525227800,10.926227783203124,-9.069122314453123,2.46749210357666,10.66161823272705,7.915908447265624
1766000558544008200,10.94500830078125,1.9370598793029783,-7.575453758239746,3.394385576248169,7.934688964843749
1766000558562788400,10.963788330078126,1.3020665645599363,-6.6392316818237305,-1.876189112663269,7.953468994140625
1766000558581568800,10.98256884765625,-0.0090937614440917,-2.569197654724121,0.2617573142051697,7.972249511718749
1766000558600349200,11.00134912109375,-0.2336220741271972,-0.0591402053833007,1.66647207736969,7.991029785156249
1766000558619129600,11.020129638671875,0.2793660163879394,-1.995266914367676,3.54602313041687,8.009810302734374
1766000558637910000,11.038909912109377,-0.4480266571044922,-2.438840866088867,2.97103214263916,8.028590576171876
1766000558656690200,11.057690185546877,-1.519413948059082,-1.526620864868164,1.2727112770080566,8.047370849609376
1766000558675470600,11.076470703125,-1.073951244354248,-1.24462890625,0.7950463891029358,8.0661513671875
1766000558694251000,11.0952509765625,-1.0794410705566406,-0.5345320701599121,0.1924226284027099,8.084931640625
1766000558713031400,11.114031494140624,-1.1491708755493164,0.2646832466125488,0.1463942527770996,8.103712158203123
1766000558731811800,11.132811767578126,-0.7913351058959961,0.2857279777526855,0.0668792724609375,8.122492431640625
1766000558750592000,11.151592041015626,-0.1687650680541992,1.0383086204528809,-0.1743339300155639,8.141272705078125
1766000558769372400,11.170372314453124,0.3819432258605957,1.4244775772094729,-0.93902325630188,8.160052978515623
1766000558788152800,11.18915283203125,0.8132095336914062,1.3412795066833496,-1.3746649026870728,8.178833496093748
1766000558806933200,11.207933349609377,0.9161267280578612,1.6017765998840332,-1.3917721509933472,8.197614013671876
1766000558825713700,11.226713623046876,0.8170919418334961,1.993407249450684,-1.4589195251464844,8.216394287109376
1766000558844493800,11.245493896484374,0.8564023971557617,2.2650856971740723,-1.652556300163269,8.235174560546874
1766000558863274200,11.264274169921874,1.115912914276123,2.448524475097656,-1.9298433065414429,8.253954833984373
1766000558882054700,11.2830546875,1.4692635536193848,2.75339412689209,-1.9523643255233765,8.272735351562499
1766000558900835000,11.3018349609375,1.8161625862121584,2.8017377853393555,-1.9472283124923704,8.291515624999999
1766000558919615500,11.320615478515624,2.1428866386413574,2.962146759033203,-1.7691829204559326,8.310296142578123
1766000558938395600,11.339395751953123,2.2870306968688965,2.9040002822875977,-1.7221834659576416,8.329076416015623
1766000558957176000,11.358176025390623,2.377435207366944,2.9379615783691406,-1.7611238956451416,8.347856689453122
1766000558975956500,11.37695654296875,2.27079439163208,2.76861572265625,-1.7033864259719849,8.36663720703125
1766000558994737000,11.39573681640625,2.2380948066711426,2.5836095809936523,-1.6161885261535645,8.38541748046875
1766000559013517300,11.414517333984374,2.190066337585449,2.4414868354797363,-1.5336127281188965,8.404197998046874
1766000559032297500,11.43329736328125,2.0829062461853027,2.3308472633361816,-1.3362973928451538,8.42297802734375
1766000559051078000,11.452077880859376,1.9349145889282229,2.137974262237549,-1.303851842880249,8.441758544921875
1766000559069858300,11.4708583984375,1.754521369934082,2.010726928710937,-1.165734887123108,8.460539062499999
1766000559088638700,11.489638671875,1.4661736488342283,1.641733169555664,-1.244312763214111,8.479319335937499
1766000559107419100,11.508419189453123,1.2102384567260742,1.485837459564209,-1.2447808980941772,8.498099853515622
1766000559126199300,11.52719921875,1.0759296417236328,1.3616352081298828,-1.2888588905334473,8.5168798828125
1766000559144979700,11.545979736328125,0.763343334197998,1.108114242553711,-1.1681839227676392,8.535660400390624
1766000559163760000,11.564760009765624,0.6250901222229004,0.9629917144775392,-0.7148354053497314,8.554440673828124
1766000559182540500,11.58354052734375,0.3863978385925293,0.6551370620727539,-0.1264402866363525,8.57322119140625
1766000559201321000,11.602321044921876,-0.2289319038391113,0.1144685745239257,0.5128878355026245,8.592001708984375
1766000559220101000,11.62110107421875,-0.5127224922180176,-0.2722034454345703,1.1195886135101318,8.610781738281249
1766000559238881500,11.639881591796875,-0.9033846855163574,-0.6906270980834961,1.687721848487854,8.629562255859375
1766000559257662000,11.658661865234375,-3.503135204315185,-3.767758846282959,4.970974445343018,8.648342529296874
1766000559276442400,11.6774423828125,-2.2032599449157715,-5.146538734436035,13.87260627746582,8.667123046874998
1766000559295222800,11.696222900390625,-9.23386001586914,7.463826179504394,10.74753189086914,8.685903564453124
1766000559314003000,11.7150029296875,-0.2273211479187011,-6.342099666595459,2.9359776973724365,8.70468359375
1766000559332783400,11.733783447265624,4.28154993057251,-6.947263717651367,-4.081968307495117,8.723464111328123
1766000559351563800,11.752563720703124,0.4451241493225097,-5.431305885314941,-0.0992199778556823,8.742244384765623
1766000559370344200,11.77134423828125,-0.5169830322265625,-1.5510234832763672,2.15054702758789,8.761024902343749
1766000559389124600,11.79012451171875,-1.0158939361572266,-0.3431148529052734,2.0257740020751958,8.779805175781249
1766000559407905000,11.808905029296875,0.0174074172973632,-2.3607287406921387,3.837115526199341,8.798585693359374
1766000559426685200,11.827685302734375,-1.0961580276489258,-2.258403778076172,2.11383056640625,8.817365966796874
1766000559445465600,11.846465576171877,-1.080277442932129,-1.6212692260742188,1.1392745971679688,8.836146240234376
1766000559464246000,11.86524609375,-0.5299148559570312,-1.154520034790039,-0.270992636680603,8.8549267578125
1766000559483026400,11.8840263671875,-1.0584945678710938,-0.7125582695007324,-0.5598709583282471,8.87370703125
1766000559501806800,11.902806884765624,-0.9578409194946288,-0.2529711723327636,0.6723606586456299,8.892487548828123
1766000559520587000,11.9215869140625,-0.6817879676818848,0.0857677459716796,0.951178789138794,8.911267578124999
1766000559539367400,11.940367431640626,-0.2590680122375488,0.4568748474121094,0.1959569454193115,8.930048095703125
1766000559558147800,11.95914794921875,0.0909705162048339,0.4354324340820312,-0.6897048950195312,8.948828613281249
1766000559576928300,11.97792822265625,0.3538293838500976,0.5462398529052734,-0.9725205302238464,8.967608886718748
1766000559595708700,11.996708740234377,0.5421366691589355,1.0830979347229004,-0.8321011066436768,8.986389404296876
1766000559614489000,12.015489013671877,0.7577815055847168,1.7074999809265137,-0.9639399647712708,9.005169677734376
1766000559633269200,12.034269287109376,0.9469456672668456,1.967005729675293,-1.26917827129364,9.023949951171875
1766000559652049700,12.053049560546874,1.3637328147888184,2.300112724304199,-1.6036714315414429,9.042730224609373
1766000559670830000,12.071830078125,1.7268319129943848,2.8328752517700195,-1.789949893951416,9.0615107421875
