time,seconds_elapsed,z,y,x,t
1766000557745843000,10.146843017578124,-0.9645555019378662,0.3751473426818847,0.8294780254364014,7.089572998046876
1766000557764623400,10.165623291015624,0.4534143805503845,1.4913500547409058,0.5640572905540466,7.108353271484376
1766000557783403500,10.184403564453126,0.3194822669029236,1.6017638444900513,0.8742238283157349,7.127133544921875
1766000557802184000,10.203183837890624,0.6035344004631042,0.4386772811412811,0.6778308153152466,7.145913818359375
1766000557820964400,10.22196435546875,0.6772963404655457,-0.6295725107192993,0.761366605758667,7.164694335937501
1766000557839744800,10.240744873046877,0.7231112122535706,-1.0962731838226318,0.7570905089378357,7.1834748535156265
1766000557858525000,10.25952490234375,0.8442151546478271,-0.7056251764297485,0.6853139400482178,7.2022548828125
1766000557877305300,10.278305419921876,0.8736893534660339,-0.5078576803207397,0.6653081178665161,7.221035400390626
1766000557896085800,10.297085693359374,0.9480621218681335,-0.3572795391082763,0.7005855441093445,7.239815673828126
1766000557914866200,10.3158662109375,0.943786084651947,-0.4492146968841553,0.8082504868507385,7.258596191406252
1766000557933646300,10.334646240234376,0.989906370639801,-0.561766505241394,0.8746820092201233,7.277376220703125
1766000557952426800,10.3534267578125,1.0384701490402222,-0.4692205190658569,0.8436806201934814,7.296156738281251
1766000557971207200,10.372207275390624,1.0346522331237793,-0.3488801419734955,0.8300888538360596,7.314937255859373
1766000557989987600,10.390987548828123,1.0655008554458618,-0.4098139107227325,0.8534544706344604,7.333717529296873
1766000558008767700,10.409767822265623,1.080161690711975,-0.6303361058235168,0.8742238283157349,7.352497802734373
1766000558027548200,10.428548095703125,1.0308343172073364,-0.8132901191711426,0.8696423768997192,7.371278076171876
1766000558046328600,10.44732861328125,0.925765573978424,-0.732655942440033,0.8146645426750183,7.390058593750002
1766000558065109000,10.46610888671875,0.8210022449493408,-0.4684569239616394,0.7106648087501526,7.408838867187502
1766000558083889200,10.48488916015625,0.7531962990760803,-0.2033416181802749,0.5869646668434143,7.427619140625001
1766000558102669600,10.503669677734376,0.66645348072052,-0.058719377964735,0.4594466686248779,7.446399658203127
1766000558121450000,10.522449951171875,0.5393936038017273,-0.0289397183805704,0.3401753306388855,7.465179931640627
1766000558140230400,10.54123046875,0.3969093859195709,0.0090866135433316,0.2358701676130294,7.483960449218749
1766000558159010800,10.5600107421875,0.2664897739887237,0.0310777463018894,0.1314122825860977,7.502740722656249
1766000558177791000,10.578791015625,0.1464548259973526,-0.0022143847309052,0.0158061254769563,7.521520996093752
1766000558196571400,10.5975712890625,0.040469791740179,-0.0416151620447635,-0.12713623046875,7.540301269531252
1766000558215351800,10.616351806640624,-0.0930041596293449,-0.0494036898016929,-0.2781725525856018,7.559081787109374
1766000558243522300,10.644522216796876,-0.2880227565765381,0.0590248107910156,-0.4980838596820831,7.587252197265627
1766000558262302700,10.663302734375,-0.407599538564682,0.0953712612390518,-0.6402626633644104,7.606032714843749
1766000558281083100,10.682083251953124,-0.5190823674201965,0.0935386717319488,-0.7726675868034363,7.624813232421875
1766000558299863300,10.70086328125,-0.6178897023200989,0.1085048541426658,-0.9160680770874025,7.643593261718749
1766000558328034000,10.729033935546877,-0.796262264251709,0.0978147238492965,-1.1460586786270142,7.671763916015628
1766000558346814200,10.747814208984376,-0.9285144805908204,0.098731018602848,-1.310686707496643,7.690544189453128
1766000558365594600,10.7665947265625,-1.062141180038452,0.1007163301110267,-1.4785218238830566,7.70932470703125
1766000558384375000,10.785375,-1.1815651655197144,0.129426971077919,-1.6423863172531128,7.72810498046875
1766000558403155500,10.804155517578126,-1.3012946844100952,0.197232961654663,-1.798004150390625,7.7468854980468755
1766000558421935600,10.822935546875,-1.4242312908172607,0.2300669401884079,-1.9217042922973635,7.765665527343749
1766000558440716000,10.841716064453124,-1.5140283107757568,0.2621373534202575,-1.9901211261749268,7.784446044921875
1766000558459496400,10.860496337890623,-1.5566362142562866,0.3132972717285156,-1.9965351819992063,7.803226318359375
1766000558478276900,10.87927685546875,-1.671173334121704,0.5286270976066589,-1.882150769233704,7.822006835937501
1766000558497057300,10.898057373046877,-1.73088538646698,0.4719693958759308,0.117209680378437,7.840787353515626
1766000558525227800,10.926227783203124,0.827874481678009,1.5530472993850708,0.7549524903297424,7.868957763671876
1766000558544008200,10.94500830078125,0.528092622756958,1.433470606803894,0.9143882393836976,7.887738281250002
1766000558562788400,10.963788330078126,0.7716749310493469,0.2454912811517715,0.9179006814956664,7.9065183105468755
1766000558581568800,10.98256884765625,0.8419243693351746,-0.8607848286628723,0.9687551856040956,7.925298828125001
1766000558600349200,11.00134912109375,0.8439096808433533,-1.3013710975646973,0.9713513851165771,7.944079101562501
1766000558628519700,11.029519775390623,0.9301943182945251,-0.6485093235969543,0.8412371873855591,7.972249755859373
1766000558647300000,11.048300048828125,0.8381064534187317,-0.2887099683284759,0.8401681184768677,7.991030029296876
1766000558666080500,11.06708056640625,0.8174898028373718,-0.1396589577198028,0.8977421522140503,8.009810546875002
1766000558684861000,11.08586083984375,0.8834632039070129,-0.2638172209262848,1.004643440246582,8.028590820312502
1766000558703641000,11.10464111328125,0.9805907011032104,-0.284433901309967,1.026481866836548,8.047371093750002
1766000558722421500,11.12342138671875,1.014493703842163,-0.2264017611742019,1.0131956338882446,8.066151367187501
1766000558741202000,11.142201904296876,1.054658055305481,-0.2242637276649475,1.026481866836548,8.084931884765627
1766000558759982300,11.160982421875,1.0348049402236938,-0.3404807448387146,1.045266032218933,8.10371240234375
1766000558778762800,11.1797626953125,0.9369138479232788,-0.4266127049922943,1.0217477083206177,8.122492675781249
1766000558797543000,11.19854296875,0.7881683111190796,-0.4295142889022827,0.9472221732139589,8.141272949218752
1766000558816323300,11.2173232421875,0.6892082095146179,-0.3656789362430572,0.8461240530014038,8.160053222656252
1766000558835103700,11.236103759765625,0.633619487285614,-0.2651916742324829,0.7271581888198853,8.178833740234374
1766000558853884200,11.25488427734375,0.5838339924812317,-0.2219729870557785,0.6088030934333801,8.1976142578125
1766000558872664600,11.27366455078125,0.5128209590911865,-0.2274707704782486,0.4979311525821686,8.21639453125
1766000558891444700,11.29244482421875,0.3950767815113067,-0.2212094068527221,0.4061487317085266,8.2351748046875
1766000558910225200,11.31122509765625,0.2753472924232483,-0.1975383907556533,0.3111592531204223,8.253955078125
1766000558929005600,11.330005615234375,0.169362261891365,-0.1326340138912201,0.1995237022638321,8.272735595703125
1766000558947786000,11.348785888671877,0.0586430206894874,-0.0770453214645385,0.0691040754318237,8.291515869140628
1766000558966566100,11.367566162109377,-0.0497854799032211,-0.0490982569754123,-0.0651334598660469,8.310296142578128
1766000558985346600,11.3863466796875,-0.162031888961792,0.0034361144062131,-0.2120464295148849,8.32907666015625
1766000559004127000,11.405126953125,-0.2866483032703399,0.0504727028310298,-0.3525453209877014,8.34785693359375
1766000559022907400,11.423907470703124,-0.3920224606990814,0.1089630052447319,-0.4898371994495392,8.366637451171876
1766000559041687800,11.442687744140626,-0.503505289554596,0.1706603467464447,-0.6256018877029419,8.385417724609376
1766000559060468200,11.46146826171875,-0.6232348084449768,0.2112828493118286,-0.7638100385665894,8.404198242187501
1766000559079248400,11.480248291015624,-0.7440332770347595,0.2312886714935302,-0.8930079340934753,8.422978271484375
1766000559098028800,11.49902880859375,-0.8547525405883789,0.261526495218277,-1.0347285270690918,8.4417587890625
1766000559116809200,11.517809326171877,-0.9781472086906432,0.2419788092374801,-1.181794285774231,8.460539306640626
1766000559135589600,11.536589599609377,-1.0778708457946775,0.1957058012485504,-1.3200024366378784,8.479319580078126
1766000559154370000,11.5553701171875,-1.1650718450546265,0.1862373948097229,-1.468595266342163,8.498100097656252
1766000559173150200,11.574150146484374,-1.2550216913223269,0.1727983802556991,-1.616729974746704,8.516880126953126
1766000559191930600,11.5929306640625,-1.3457350730895996,0.2454912811517715,-1.7485240697860718,8.535660644531252
1766000559210711000,11.6117109375,-1.459966778755188,0.4046215713024139,-1.8777220249176023,8.554440917968751
1766000559229491500,11.630491455078126,-1.5438079833984375,0.5852848291397095,-1.964464783668518,8.573221435546877
1766000559248272000,11.64927197265625,-1.6485713720321655,0.7584649920463562,-1.902920126914978,8.592001953125
1766000559267052000,11.668052001953123,-1.5880956649780271,0.1527925580739975,-0.1642462611198425,8.610781982421873
1766000559285832400,11.68683251953125,0.2614501118659973,1.3105340003967283,1.0481675863265991,8.629562500000002
1766000559304612900,11.70561279296875,0.5222893953323364,2.208505153656006,0.8952987194061279,8.648342773437502
1766000559323393300,11.724393310546876,0.4224129915237427,1.120249629020691,0.8723912835121155,8.667123291015628
1766000559342173700,11.743173583984374,0.7951932549476624,0.0524580143392086,0.6912698745727539,8.685903564453124
1766000559360953900,11.761953857421876,0.5563451051712036,-1.1101703643798828,0.7922152876853943,8.704683837890627
1766000559379734300,11.780734375,0.5528326034545898,-1.276630997657776,0.8119156360626221,8.72346435546875
1766000559398514700,11.7995146484375,0.7367029190063477,-0.7321978211402893,0.700738251209259,8.74224462890625
1766000559417295000,11.818295166015623,0.7180715203285217,-0.4551706314086914,0.6721803545951843,8.761025146484375
1766000559436075500,11.837075439453123,0.6582068204879761,0.1346193253993988,0.6402626633644104,8.779805419921875
1766000559454855700,11.855855712890625,0.6323977708816528,0.1767689883708953,0.7030289769172668,8.798585693359374
1766000559473636000,11.874635986328125,0.7602212429046631,-0.1327867358922958,0.8007673621177673,8.817365966796874
1766000559492416500,11.89341650390625,0.8775072693824768,-0.2606101930141449,0.8300888538360596,8.836146484375
1766000559511197000,11.912197021484374,0.9060651659965516,-0.2981783747673034,0.8983530402183533,8.854927001953126
1766000559529977300,11.930977294921876,0.9269872903823853,-0.3282634615898132,0.9747111201286316,8.873707275390625
1766000559548757800,11.9497578125,0.9004147052764893,-0.368580549955368,1.0096831321716309,8.892487792968751
1766000559567538000,11.968537841796875,0.8083268404006958,-0.3884336352348327,0.9705877900123596,8.911267822265625
1766000559586318300,11.987318359375,0.7165443897247314,-0.3177260458469391,0.8711695075035095,8.93004833984375
1766000559605098800,12.0060986328125,0.6420188546180725,-0.2041051983833313,0.7496074438095093,8.94882861328125
1766000559623879200,12.024879150390625,0.5739074349403381,-0.0860555768013,0.632168710231781,8.967609130859376
1766000559642659600,12.04365966796875,0.4830413162708282,-0.0405461490154266,0.5098429918289185,8.986389648437502
1766000559661439700,12.062439697265624,0.3854556679725647,-0.0631481483578682,0.3904189467430115,9.005169677734376
1766000559680220200,12.08122021484375,0.2790125012397766,-0.0848338454961776,0.2658025324344635,9.023950195312501
1766000559699000600,12.10000048828125,0.1887572109699249,-0.0529161617159843,0.1401171088218689,9.042730468750001
1766000559717781000,12.118781005859375,0.1038470119237899,-0.0257326792925596,0.0107664912939071,9.061510986328127
1766000559736561400,12.1375615234375,0.0456621423363685,-0.0633008629083633,-0.1181259751319885,9.080291503906249
1766000559755341800,12.156341796875,0.013133592903614,-0.1610392332077026,-0.2323576956987381,9.099071777343749
