time,seconds_elapsed,z,y,x,t
1766000553670510000,6.071510009765625,0.0775798261165618,0.0352010838687419,0.0353537984192371,3.014239990234375
1766000553689290500,6.09029052734375,0.0722347572445869,0.0235946513712406,0.0329103395342826,3.0330205078125005
1766000553708070700,6.109070556640625,0.0618500597774982,0.0469602309167385,0.0352010838687419,3.0518005371093753
1766000553726851000,6.12785107421875,0.048105601221323,0.0782670527696609,0.0405461490154266,3.0705810546875
1766000553755021600,6.156021484375,0.0317649692296981,0.1254563480615615,0.0455857850611209,3.0987514648437497
1766000553773802000,6.174802001953125,0.0368046015501022,0.0930805206298828,0.0381026901304721,3.1175319824218755
1766000553792582100,6.19358203125,0.0462730079889297,0.0234419368207454,0.0223729219287633,3.13631201171875
1766000553811362600,6.212362548828125,0.0447458438575267,0.0002290742995683,-0.0019089524867013,3.155092529296875
1766000553830143000,6.23114306640625,0.0288633611053228,0.041767880320549,-0.0374918244779109,3.173873046875
1766000553848923100,6.249923095703125,-0.0044287694618105,0.1078939884901046,-0.0800996422767639,3.1926530761718754
1766000553867703600,6.26870361328125,-0.0473420210182666,0.2969566285610199,-0.114918939769268,3.2114335937500003
1766000553886484000,6.28748388671875,-0.0865900814533233,0.4075231552124023,-0.1410334110260009,3.2302138671875
1766000553905264000,6.30626416015625,-0.1114828214049339,0.3659843504428863,-0.1341611742973327,3.248994140625
1766000553924044500,6.32504443359375,-0.1374445706605911,0.2580140233039856,-0.1233183294534683,3.2677744140625005
1766000553942825000,6.343824951171875,-0.1464548259973526,0.2685514390468597,-0.109115719795227,3.2865549316406253
1766000553961605000,6.362605224609375,-0.1786779463291168,0.3975966274738312,-0.0712421014904975,3.305335205078125
1766000553980385500,6.381385498046875,-0.1565341055393219,0.4734965562820434,0.011224640533328,3.324115478515625
1766000553999166000,6.400166015625,-0.1090393662452697,0.3099375069141388,0.1256090700626373,3.3428959960937505
1766000554017946000,6.418946044921875,-0.048105601221323,0.1147662177681922,0.2457967102527618,3.3616760253906253
1766000554036726500,6.4377265625,-0.0045814858749508,0.1028543561697006,0.3661370873451233,3.38045654296875
1766000554055507000,6.4565068359375,0.0106901340186595,0.0674242004752159,0.4574613571166992,3.39923681640625
1766000554074287000,6.475287109375,0.0041233371011912,0.011224640533328,0.5057196617126465,3.4180170898437505
1766000554093067500,6.494067626953125,-0.0392480604350566,-0.0199294630438089,0.5124391913414001,3.4367976074218753
1766000554111848000,6.512847900390625,-0.0937677472829818,-0.029245151206851,0.4901426136493683,3.455577880859375
1766000554130628400,6.53162841796875,-0.1450803875923156,-0.0353537984192371,0.4406625926494598,3.4743583984375
1766000554149408500,6.550408447265625,-0.2035706937313079,0.0251218136399984,0.372245728969574,3.4931384277343756
1766000554168189000,6.56918896484375,-0.2700022459030151,0.1263726502656936,0.2975675165653229,3.5119189453125004
1766000554186969300,6.58796923828125,-0.2985601723194122,0.1544724255800247,0.2250273078680038,3.53069921875
1766000554205749500,6.60674951171875,-0.30085089802742,0.1043815165758133,0.1679114550352096,3.5494794921875
1766000554224530000,6.625530029296875,-0.2984074354171753,0.0715475380420684,0.1217911690473556,3.5682600097656247
1766000554243310300,6.644310302734375,-0.2765690386295318,0.025427246466279,0.0869718715548515,3.5870402832031254
1766000554262090500,6.663090576171875,-0.2280052751302719,-0.080252356827259,0.0712421014904975,3.605820556640625
1766000554280871000,6.681870849609375,-0.1505781710147857,-0.2876409590244293,0.0817795246839523,3.624600830078125
1766000554309041400,6.71004150390625,-0.0329866968095302,-0.6335431337356567,0.116751529276371,3.6527714843750005
1766000554327821800,6.72882177734375,0.0004581485991366,-0.6698895692825317,0.1520289778709411,3.6715517578125003
1766000554346602000,6.74760205078125,0.0216856990009546,-0.5588648915290833,0.1833357959985733,3.69033203125
1766000554365382400,6.76638232421875,0.0358883067965507,-0.4904480576515198,0.2097556889057159,3.7091123046875
1766000554393553000,6.794552978515625,0.0427605360746383,-0.4730384051799774,0.2386190593242645,3.7372829589843755
1766000554412333300,6.813333251953125,0.0335975624620914,-0.3979020416736603,0.2457967102527618,3.7560632324218752
1766000554431113500,6.832113525390625,0.0087048234418034,-0.2876409590244293,0.2485456019639969,3.774843505859375
1766000554449894000,6.850893798828125,-0.0100792692974209,-0.1912770271301269,0.2441168427467346,3.7936237792968748
1766000554478064400,6.879064453125,-0.0279470644891262,-0.1417969912290573,0.2288452237844467,3.8217944335937504
1766000554496844800,6.8978447265625,-0.0426078177988529,-0.0938441008329391,0.2219729870557785,3.84057470703125
1766000554515625000,6.916625,-0.0642935186624527,-0.0526107288897037,0.2167806327342987,3.85935498046875
1766000554534405400,6.9354052734375,-0.0714711770415306,-0.0290924347937107,0.2097556889057159,3.8781352539062497
1766000554553185800,6.954185791015625,-0.0707075968384742,-7.63580974307e-05,0.1970802545547485,3.8969157714843754
1766000554571966000,6.972966064453125,-0.073151059448719,0.0309250298887491,0.1784488707780838,3.915696044921875
1766000554590746400,6.991746337890625,-0.0798705667257309,0.054443322122097,0.1582903414964676,3.934476318359375
1766000554609526800,7.01052685546875,-0.0980437994003295,0.0785724818706512,0.1311068534851074,3.9532568359374998
1766000554628307200,7.02930712890625,-0.127365306019783,0.1118646115064621,0.1052978187799453,3.9720371093750004
1766000554647087400,7.04808740234375,-0.1768453568220138,0.1761581301689148,0.072921983897686,3.9908173828125
1766000554665867800,7.06686767578125,-0.2654207348823547,0.2908479869365692,0.0454330667853355,4.0095976562499995
1766000554684648200,7.085648193359375,-0.435699313879013,0.6759982109069824,0.040698867291212,4.028378173828125
1766000554703428400,7.104428466796875,-0.502894401550293,1.1127665042877195,0.261526495218277,4.047158447265625
1766000554722208800,7.123208740234375,-0.3390299379825592,1.3946806192398071,0.6908116936683655,4.065938720703125
1766000554740989200,7.1419892578125,-0.1102610900998115,1.8900920152664185,1.2265400886535645,4.0847192382812505
1766000554759769300,7.160769287109375,0.1101083755493164,2.8745005130767822,1.9465969800949097,4.103499267578124
1766000554778549800,7.1795498046875,0.3912588953971863,3.2495715618133545,2.5263075828552246,4.12227978515625
1766000554797330200,7.198330078125,0.7418952584266663,2.67764949798584,2.9361979961395264,4.14106005859375
1766000554816110600,7.217110595703125,0.9556979537010192,2.0678536891937256,3.1823763847351074,4.1598405761718755
1766000554834890800,7.235890869140625,1.092226266860962,1.3774237632751465,3.285001754760742,4.178620849609375
1766000554853671200,7.254671142578125,1.0850485563278198,0.7349466681480408,3.293401002883911,4.197401123046875
1766000554872451600,7.27345166015625,0.9679152369499208,0.4825068116188049,3.2437684535980225,4.216181640625001
1766000554891231700,7.292231689453125,0.7903063297271729,0.5022072196006775,3.1437392234802246,4.234961669921875
1766000554910012200,7.31101220703125,0.5849030017852783,0.7256309986114502,2.999575138092041,4.2537421875
1766000554928792600,7.32979248046875,0.3503309488296509,0.9852485060691832,2.7947826385498047,4.2725224609375
1766000554947573000,7.348572998046875,0.1730274558067321,1.0249547958374023,2.54982590675354,4.291302978515626
1766000554966353200,7.367353271484375,0.0308486707508564,0.8568142056465149,2.3108251094818115,4.310083251953126
1766000554985133600,7.386133544921875,-0.0729983374476432,0.6220894455909729,2.0814454555511475,4.328863525390625
1766000555003914000,7.4049140625,-0.1751654744148254,0.4837285578250885,1.8322125673294067,4.347644042968749
1766000555022694100,7.423694091796875,-0.2594648003578186,0.4521162807941437,1.5762602090835571,4.366424072265625
1766000555041474600,7.442474609375,-0.3772090077400207,0.6048324704170227,1.3085486888885498,4.385204589843751
1766000555060254700,7.461254638671875,-0.502894401550293,0.7952696084976196,1.0278563499450684,4.4039846191406244
1766000555079035100,7.48003515625,-0.5926915407180786,0.8377246856689453,0.7393754720687866,4.42276513671875
1766000555097815300,7.498815185546875,-0.6221657991409302,0.7763327956199646,0.4855611324310303,4.441545166015626
1766000555116595700,7.517595703125,-0.61117023229599,0.7221185564994812,0.2528216540813446,4.46032568359375
1766000555135376100,7.536376220703125,-0.596662163734436,0.7682388424873352,0.0287870019674301,4.479106201171875
1766000555154156300,7.55515625,-0.6166679859161377,0.9209550023078918,-0.174172818660736,4.497886230468749
1766000555172936700,7.573936767578125,-0.6621774435043335,1.054581642150879,-0.354225218296051,4.516666748046875
1766000555191717000,7.592717041015625,-0.6487383842468262,1.084208607673645,-0.5322923064231873,4.535447021484375
1766000555210497300,7.611497314453125,-0.6841685771942139,0.7836631536483765,-0.6372083425521851,4.5542272949218745
1766000555229277700,7.630277587890625,-0.6924152374267578,0.339869886636734,-0.7212022542953491,4.573007568359374
1766000555248057900,7.649057861328125,-0.7394518256187439,-0.0087811816483736,-0.8348230719566345,4.591787841796876
1766000555266838300,7.66783837890625,-0.7945823669433594,0.0367282442748546,-0.9980766773223876,4.610568359375
1766000555285618700,7.68661865234375,-0.956766963005066,0.5765799880027771,-1.187750220298767,4.6293486328124995
1766000555304398800,7.70539892578125,-1.1792744398117063,1.1978294849395752,-1.3322197198867798,4.648128906249999
1766000555323179300,7.72417919921875,-1.2863285541534424,1.3829214572906494,-1.4469095468521118,4.666909179687501
1766000555341959400,7.74295947265625,-1.2322670221328735,1.2190570831298828,-1.5489239692687988,4.685689453125001
1766000555360739800,7.76173974609375,-1.1662936210632324,0.8126792311668396,-1.5701515674591064,4.7044697265625
1766000555379520300,7.780520263671875,-1.1861467361450195,0.4597521126270294,-1.5341105461120603,4.723250244140624
1766000555398300400,7.799300537109375,-1.3226749897003174,0.2977202236652374,-1.506163477897644,4.742030517578126
1766000555417080800,7.818080810546875,-1.426674723625183,0.2890154123306274,-1.504941701889038,4.760810791015626
1766000555435861200,7.836861328125,-1.4831796884536743,0.4994583129882812,-1.520518779754639,4.77959130859375
1766000555454641400,7.855641357421875,-1.504407286643982,0.6987529397010803,-1.5379284620285034,4.798371337890625
1766000555473421800,7.874421875,-1.535714030265808,0.7531198859214783,-1.55946147441864,4.817151855468751
1766000555492202000,7.893201904296875,-1.5329651832580566,0.2714530229568481,-1.0991748571395874,4.835931884765625
1766000555510982400,7.911982421875,-1.018311619758606,-1.1631629467010498,0.9571487307548524,4.8547124023437505
1766000555529762800,7.9307626953125,1.2124139070510864,0.0984255895018577,0.0567340664565563,4.87349267578125
1766000555548543000,7.94954296875,0.5578722357749939,2.051665782928467,0.6453022956848145,4.89227294921875
1766000555567323400,7.968323486328125,0.2597702443599701,1.39849853515625,0.6857720613479614,4.911053466796876
1766000555586103800,7.987103759765625,0.5844448804855347,0.1314122825860977,0.6596575975418091,4.9298337402343755
1766000555604884000,8.005884033203126,0.5447386503219604,-0.8064178824424744,0.821384072303772,4.948614013671875
1766000555623664400,8.024664306640625,0.7098248600959778,-1.0906226634979248,1.0637446641921997,4.967394287109375
1766000555642444800,8.04344482421875,1.0645846128463743,-0.8558979034423828,1.0521382093429563,4.986174804687499
1766000555661225000,8.062224853515625,1.047785758972168,-0.3459785282611847,1.0206786394119265,5.004954833984375
1766000555680005400,8.08100537109375,0.9983057379722596,0.0032833982259035,1.08100163936615,5.0237353515625
