time,seconds_elapsed,z,y,x,t
1766000556656582700,9.057582763671874,2.0275888442993164,3.775198459625244,-1.642200231552124,6.047263427734373
1766000556675362800,9.07636279296875,2.256258010864258,3.538047313690185,-2.4712347984313965,6.066043457031249
1766000556694143200,9.095143310546876,2.2574305534362797,3.758555412292481,-2.849165678024292,6.084823974609375
1766000556712923600,9.113923583984375,2.055619239807129,4.013852119445801,-2.5778555870056152,6.103604248046874
1766000556731704000,9.1327041015625,1.7474241256713867,3.73056697845459,-2.329233169555664,6.122384765624998
1766000556750484200,9.151484130859377,1.6033329963684082,3.2094197273254395,-2.606178045272827,6.141164794921876
1766000556769264600,9.1702646484375,1.5506048202514648,2.8126039505004883,-2.901448965072632,6.1599453125
1766000556788045000,9.189045166015624,1.375375747680664,2.674071788787842,-2.7339038848876958,6.178725830078124
1766000556806825200,9.2078251953125,1.1446514129638672,2.391610622406006,-2.322227478027344,6.197505859374999
1766000556825605600,9.226605712890626,0.9649772644042968,2.1220932006835938,-1.899965763092041,6.216286376953125
1766000556853776100,9.254776123046875,0.6036324501037598,1.5901727676391602,-1.4984933137893677,6.244456787109375
1766000556872556500,9.273556640625,0.3482065200805664,1.2005581855773926,-1.1468816995620728,6.2632373046874985
1766000556891337000,9.2923369140625,0.048431396484375,0.5626764297485352,-0.5144278407096863,6.282017578124998
1766000556910117000,9.3111171875,-0.2936563491821289,0.015665054321289,0.2486714720726013,6.3007978515625
1766000556928897500,9.3298974609375,-0.5722260475158691,-0.2525911331176758,1.2118273973464966,6.319578125
1766000556957068000,9.358068115234374,-1.0034418106079102,-0.8701620101928711,2.5425424575805664,6.347748779296873
1766000556975848400,9.376848388671876,-1.1131439208984375,-1.1502108573913574,2.993138074874878,6.366529052734375
1766000556994628900,9.39562890625,-7.420761585235596,-6.107065200805664,11.825806617736816,6.385309570312499
1766000557013409300,9.4144091796875,-4.266952753067017,2.219614028930664,9.886333465576172,6.404089843749999
1766000557032189400,9.433189453125,-7.473133087158203,-1.1288752555847168,8.482003211975098,6.4228701171874985
1766000557050969900,9.451969970703123,4.664717197418213,-6.485823631286621,3.05857515335083,6.441650634765622
1766000557069750300,9.470750244140625,-0.6941938400268555,-6.868354797363281,-0.1140216141939163,6.460430908203124
1766000557088530700,9.48953076171875,-0.1860694885253906,-1.4514312744140625,2.342001438140869,6.47921142578125
1766000557107310800,9.508310791015624,-0.9104256629943848,-0.0396633148193359,3.2994072437286377,6.4979914550781235
1766000557126091300,9.52709130859375,0.4803624153137207,-2.546539306640625,4.928787708282471,6.516771972656249
1766000557144871700,9.54587158203125,-0.7145991325378418,-2.970754146575928,2.318273067474365,6.535552246093749
1766000557163652000,9.564652099609376,-0.7410526275634766,-2.465641975402832,0.4813332557678222,6.554332763671875
1766000557182432300,9.583432373046875,-0.1793503761291504,-1.669126033782959,-0.7062450647354126,6.5731130371093744
1766000557201212700,9.602212646484375,-0.3011045455932617,-0.9493823051452636,-0.889650821685791,6.591893310546874
1766000557219993000,9.6209931640625,-0.5102267265319824,-0.4122443199157715,-0.4879485368728637,6.610673828125
1766000557238773200,9.639773193359376,-0.0492143630981445,0.3632626533508301,-0.2569625377655029,6.6294538574218755
1766000557257553700,9.6585537109375,0.5842418670654297,1.1596813201904297,-0.95119047164917,6.6482343749999995
1766000557276334000,9.677333984375,1.4008164405822754,1.8304505348205569,-1.486679196357727,6.667014648437499
1766000557295114500,9.696114501953126,1.6850347518920898,2.2136664390563965,-1.544609785079956,6.685795166015625
1766000557313894700,9.714894775390626,1.8947391510009768,2.569451332092285,-1.7119868993759155,6.704575439453125
1766000557332675000,9.733675048828124,2.014324188232422,3.2008838653564453,-2.217846393585205,6.723355712890623
1766000557351455500,9.75245556640625,2.0095086097717285,3.395197868347168,-2.667934894561768,6.742136230468748
1766000557370236000,9.77123583984375,1.7600445747375488,3.297471046447754,-2.621199131011963,6.76091650390625
1766000557389016000,9.79001611328125,1.6525564193725586,3.47930908203125,-2.501737117767334,6.77969677734375
1766000557407796500,9.80879638671875,1.7095990180969238,3.698784828186035,-2.4723668098449707,6.7984770507812495
1766000557426577000,9.827576904296874,1.6152992248535156,3.5527243614196777,-2.269892692565918,6.8172575683593735
1766000557445357300,9.846357421875,1.4425044059753418,3.1501245498657227,-2.494856357574463,6.836038085937499
1766000557464137500,9.865137451171876,1.4236454963684082,3.1070384979248047,-2.4638924598693848,6.854818115234375
1766000557482918000,9.88391796875,1.3986554145812988,2.7829761505126958,-2.3418328762054443,6.873598632812499
1766000557501698300,9.9026982421875,1.0618276596069336,2.535470485687256,-1.8148516416549685,6.8923789062499985
1766000557520478700,9.921478759765623,0.3604493141174316,2.1335315704345703,-1.090409755706787,6.911159423828122
1766000557539259000,9.9402587890625,-0.1939983367919922,1.2639236450195312,-0.5280988216400146,6.929939453125
1766000557558039300,9.959039306640625,-0.1604151725769043,0.6474752426147461,-0.4506677389144897,6.948719970703124
1766000557576819700,9.97781982421875,0.097900390625,0.2678065299987793,-0.3457340002059936,6.9675004882812495
1766000557604990200,10.005990234375,0.4456381797790527,-0.0062770843505859,-0.1883670091629028,6.995670898437499
1766000557623770600,10.0247705078125,0.3119006156921386,0.0984582901000976,-0.0826897025108337,7.014451171874999
1766000557642551000,10.043551025390624,-0.2893762588500976,0.0628852844238281,0.7012362480163574,7.033231689453123
1766000557661331200,10.062331298828123,-1.0364446640014648,-0.5499062538146973,1.352469563484192,7.052011962890623
1766000557680111600,10.081111572265623,-1.222245216369629,-0.9706573486328124,1.2049360275268557,7.070792236328122
1766000557698892000,10.09989208984375,-0.9147868156433104,-0.7842903137207031,0.9522383213043212,7.08957275390625
1766000557717672400,10.11867236328125,-1.1235685348510742,-1.1184730529785156,1.7406306266784668,7.10835302734375
1766000557736452600,10.13745263671875,-6.907018184661865,-4.5859575271606445,8.901248931884766,7.127133300781249
1766000557755233000,10.15623291015625,-2.222078323364258,2.058762550354004,8.474292755126953,7.145913574218749
1766000557774013400,10.175013427734376,-3.3205881118774414,-1.879769325256348,7.989193439483643,7.164694091796875
1766000557792793900,10.1937939453125,1.2144050598144531,-5.163763523101807,0.5373767614364624,7.183474609374999
1766000557811574000,10.212573974609375,1.6112771034240725,-3.9810776710510254,-1.886964201927185,7.202254638671874
1766000557830354400,10.2313544921875,-0.1912660598754882,-2.314713954925537,1.2398240566253662,7.221035156249998
1766000557849134800,10.250134765625,-0.5352120399475098,-1.0567712783813477,2.7597815990448,7.2398154296875
1766000557867915300,10.268915283203125,-0.3775868415832519,-1.897110939025879,3.740922212600708,7.258595947265624
1766000557886695400,10.2876953125,-1.274397373199463,-2.0530271530151367,1.8549219369888303,7.2773759765624995
1766000557905475800,10.306475830078124,-1.0902328491210938,-2.200326919555664,1.103912591934204,7.296156494140623
1766000557924256300,10.32525634765625,-0.6139340400695801,-1.946925163269043,0.22320556640625,7.314937011718749
1766000557943036700,10.34403662109375,-0.6916699409484863,-0.6491961479187012,-0.1102380752563476,7.333717285156249
1766000557961817000,10.362817138671875,-0.721160888671875,-0.1997485160827636,0.4397803544998169,7.352497802734375
1766000557980597200,10.38159716796875,-0.6509857177734375,-0.3895564079284668,0.1494618654251098,7.371277832031248
1766000557999377700,10.400377685546877,-0.3535947799682617,-0.0634012222290039,-0.705260694026947,7.390058349609376
1766000558018158000,10.419157958984377,0.0674848556518554,0.3673791885375976,-1.1301214694976809,7.408838623046876
1766000558036938500,10.4379384765625,0.4571914672851562,0.6009984016418457,-1.117809534072876,7.427619140625
1766000558055718700,10.45671875,0.6805949211120605,1.1313347816467283,-0.9821239113807678,7.446399414062499
1766000558074499000,10.4754990234375,0.9513001441955566,1.6042070388793943,-0.9438416957855223,7.465179687499999
1766000558093279500,10.494279541015626,1.1248602867126465,1.815821647644043,-1.0986661911010742,7.483960205078125
1766000558112060000,10.513059814453126,1.366136074066162,2.261709213256836,-1.3129264116287231,7.502740478515625
1766000558140230400,10.54123046875,1.6602463722229004,3.109683036804199,-1.404952049255371,7.5309111328124985
1766000558159010800,10.5600107421875,1.8763880729675293,3.084956169128418,-1.7332264184951782,7.549691406249998
1766000558177791000,10.578791015625,2.246809482574463,3.244826316833496,-2.1016533374786377,7.5684716796875
1766000558196571400,10.5975712890625,2.421142578125,3.324319362640381,-2.2316341400146484,7.587251953125
1766000558215351800,10.616351806640624,2.466855049133301,3.440596103668213,-2.033862352371216,7.6060324707031235
1766000558234132200,10.63513232421875,2.1652703285217285,3.238236904144287,-1.8526041507720947,7.624812988281249
1766000558262302700,10.663302734375,1.995436191558838,2.967087745666504,-1.78976309299469,7.652983398437499
1766000558281083100,10.682083251953124,1.890498161315918,2.915656566619873,-1.6805447340011597,7.671763916015623
1766000558299863300,10.70086328125,1.742300510406494,2.4324545860290527,-1.603376388549805,7.690543945312498
1766000558318643700,10.719643798828123,1.6436381340026855,1.989203929901123,-1.5974600315093994,7.709324462890622
1766000558337424100,10.738424072265625,1.4549622535705566,1.5999021530151367,-1.3042545318603516,7.728104736328124
1766000558356204500,10.75720458984375,1.2417826652526855,1.1312990188598633,-0.9560155868530272,7.74688525390625
1766000558374985000,10.77598486328125,0.9500489234924316,0.9246482849121094,-0.508544921875,7.765665527343749
1766000558393765000,10.79476513671875,0.4625425338745117,0.4455394744873047,-0.0412690639495849,7.784445800781249
1766000558412545500,10.813545654296876,0.0874590873718261,-0.124826431274414,0.2822409272193908,7.803226318359375
1766000558431326000,10.832325927734376,-0.4531149864196777,-0.5419473648071289,0.6433536410331726,7.822006591796875
1766000558450106400,10.8511064453125,-0.9873204231262208,-0.995203971862793,1.1703414916992188,7.840787109374999
1766000558468886800,10.86988671875,-1.46502423286438,-1.094041347503662,2.264999389648437,7.859567382812498
1766000558487667000,10.8886669921875,-4.376173973083496,-4.616783142089844,7.729629039764404,7.87834765625
1766000558506447400,10.907447265625,-2.920599102973938,-1.6983108520507812,11.463560104370115,7.8971279296875
1766000558525227800,10.926227783203124,-9.069122314453123,2.46749210357666,10.66161823272705,7.915908447265624
1766000558544008200,10.94500830078125,1.9370598793029783,-7.575453758239746,3.394385576248169,7.934688964843749
1766000558562788400,10.963788330078126,1.3020665645599363,-6.6392316818237305,-1.876189112663269,7.953468994140625
1766000558581568800,10.98256884765625,-0.0090937614440917,-2.569197654724121,0.2617573142051697,7.972249511718749
1766000558600349200,11.00134912109375,-0.2336220741271972,-0.0591402053833007,1.66647207736969,7.991029785156249
1766000558619129600,11.020129638671875,0.2793660163879394,-1.995266914367676,3.54602313041687,8.009810302734374
1766000558637910000,11.038909912109377,-0.4480266571044922,-2.438840866088867,2.97103214263916,8.028590576171876
1766000558656690200,11.057690185546877,-1.519413948059082,-1.526620864868164,1.2727112770080566,8.047370849609376
1766000558675470600,11.076470703125,-1.073951244354248,-1.24462890625,0.7950463891029358,8.0661513671875
