time,seconds_elapsed,z,y,x,t
1766000558694251000,11.0952509765625,-1.0794410705566406,-0.5345320701599121,0.1924226284027099,8.084931640625
1766000558713031400,11.114031494140624,-1.1491708755493164,0.2646832466125488,0.1463942527770996,8.103712158203123
1766000558731811800,11.132811767578126,-0.7913351058959961,0.2857279777526855,0.0668792724609375,8.122492431640625
1766000558750592000,11.151592041015626,-0.1687650680541992,1.0383086204528809,-0.1743339300155639,8.141272705078125
1766000558769372400,11.170372314453124,0.3819432258605957,1.4244775772094729,-0.93902325630188,8.160052978515623
1766000558788152800,11.18915283203125,0.8132095336914062,1.3412795066833496,-1.3746649026870728,8.178833496093748
1766000558806933200,11.207933349609377,0.9161267280578612,1.6017765998840332,-1.3917721509933472,8.197614013671876
1766000558825713700,11.226713623046876,0.8170919418334961,1.993407249450684,-1.4589195251464844,8.216394287109376
1766000558844493800,11.245493896484374,0.8564023971557617,2.2650856971740723,-1.652556300163269,8.235174560546874
1766000558863274200,11.264274169921874,1.115912914276123,2.448524475097656,-1.9298433065414429,8.253954833984373
1766000558882054700,11.2830546875,1.4692635536193848,2.75339412689209,-1.9523643255233765,8.272735351562499
1766000558900835000,11.3018349609375,1.8161625862121584,2.8017377853393555,-1.9472283124923704,8.291515624999999
1766000558919615500,11.320615478515624,2.1428866386413574,2.962146759033203,-1.7691829204559326,8.310296142578123
1766000558938395600,11.339395751953123,2.2870306968688965,2.9040002822875977,-1.7221834659576416,8.329076416015623
1766000558957176000,11.358176025390623,2.377435207366944,2.9379615783691406,-1.7611238956451416,8.347856689453122
1766000558975956500,11.37695654296875,2.27079439163208,2.76861572265625,-1.7033864259719849,8.36663720703125
1766000558994737000,11.39573681640625,2.2380948066711426,2.5836095809936523,-1.6161885261535645,8.38541748046875
1766000559013517300,11.414517333984374,2.190066337585449,2.4414868354797363,-1.5336127281188965,8.404197998046874
1766000559032297500,11.43329736328125,2.0829062461853027,2.3308472633361816,-1.3362973928451538,8.42297802734375
1766000559051078000,11.452077880859376,1.9349145889282229,2.137974262237549,-1.303851842880249,8.441758544921875
1766000559069858300,11.4708583984375,1.754521369934082,2.010726928710937,-1.165734887123108,8.460539062499999
1766000559088638700,11.489638671875,1.4661736488342283,1.641733169555664,-1.244312763214111,8.479319335937499
1766000559107419100,11.508419189453123,1.2102384567260742,1.485837459564209,-1.2447808980941772,8.498099853515622
1766000559126199300,11.52719921875,1.0759296417236328,1.3616352081298828,-1.2888588905334473,8.5168798828125
1766000559144979700,11.545979736328125,0.763343334197998,1.108114242553711,-1.1681839227676392,8.535660400390624
1766000559163760000,11.564760009765624,0.6250901222229004,0.9629917144775392,-0.7148354053497314,8.554440673828124
1766000559182540500,11.58354052734375,0.3863978385925293,0.6551370620727539,-0.1264402866363525,8.57322119140625
1766000559201321000,11.602321044921876,-0.2289319038391113,0.1144685745239257,0.5128878355026245,8.592001708984375
1766000559220101000,11.62110107421875,-0.5127224922180176,-0.2722034454345703,1.1195886135101318,8.610781738281249
1766000559238881500,11.639881591796875,-0.9033846855163574,-0.6906270980834961,1.687721848487854,8.629562255859375
1766000559257662000,11.658661865234375,-3.503135204315185,-3.767758846282959,4.970974445343018,8.648342529296874
1766000559276442400,11.6774423828125,-2.2032599449157715,-5.146538734436035,2.9359776973724365,8.667123046874998
1766000559295222800,11.696222900390625,-9.23386001586914,7.463826179504394,2.9359776973724365,8.685903564453124
1766000559314003000,11.7150029296875,-0.2273211479187011,-6.342099666595459,2.9359776973724365,8.70468359375
1766000559332783400,11.733783447265624,4.28154993057251,-6.947263717651367,-4.081968307495117,8.723464111328123
1766000559351563800,11.752563720703124,0.4451241493225097,-5.431305885314941,-0.0992199778556823,8.742244384765623
1766000559370344200,11.77134423828125,-0.5169830322265625,-1.5510234832763672,2.15054702758789,8.761024902343749
1766000559389124600,11.79012451171875,-1.0158939361572266,-0.3431148529052734,2.0257740020751958,8.779805175781249
1766000559407905000,11.808905029296875,0.0174074172973632,-2.3607287406921387,3.837115526199341,8.798585693359374
1766000559426685200,11.827685302734375,-1.0961580276489258,-2.258403778076172,2.11383056640625,8.817365966796874
1766000559445465600,11.846465576171877,-1.080277442932129,-1.6212692260742188,1.1392745971679688,8.836146240234376
1766000559464246000,11.86524609375,-0.5299148559570312,-1.154520034790039,-0.270992636680603,8.8549267578125
1766000559483026400,11.8840263671875,-1.0584945678710938,-0.7125582695007324,-0.5598709583282471,8.87370703125
1766000559501806800,11.902806884765624,-0.9578409194946288,-0.2529711723327636,0.6723606586456299,8.892487548828123
1766000559520587000,11.9215869140625,-0.6817879676818848,0.0857677459716796,0.951178789138794,8.911267578124999
1766000559539367400,11.940367431640626,-0.2590680122375488,0.4568748474121094,0.1959569454193115,8.930048095703125
1766000559558147800,11.95914794921875,0.0909705162048339,0.4354324340820312,-0.6897048950195312,8.948828613281249
1766000559576928300,11.97792822265625,0.3538293838500976,0.5462398529052734,-0.9725205302238464,8.967608886718748
1766000559595708700,11.996708740234377,0.5421366691589355,1.0830979347229004,-0.8321011066436768,8.986389404296876
1766000559614489000,12.015489013671877,0.7577815055847168,1.7074999809265137,-0.9639399647712708,9.005169677734376
1766000559633269200,12.034269287109376,0.9469456672668456,1.967005729675293,-1.26917827129364,9.023949951171875
1766000559652049700,12.053049560546874,1.3637328147888184,2.300112724304199,-1.6036714315414429,9.042730224609373
1766000559670830000,12.071830078125,1.7268319129943848,2.8328752517700195,-1.789949893951416,9.0615107421875
1766000559689610500,12.090610595703126,2.057076930999756,3.291342735290528,-1.826460599899292,9.080291259765625
1766000559708391000,12.109390869140626,2.177239418029785,3.409346580505371,-1.8924883604049685,9.099071533203125
1766000559727171000,12.128171142578124,2.1274871826171875,3.2639355659484863,-2.0455055236816406,9.117851806640623
1766000559745951500,12.146951416015623,2.0046329498291016,3.181102752685547,-2.1187314987182617,9.136632080078122
1766000559764732000,12.16573193359375,1.935788631439209,3.1628918647766118,-2.064791679382324,9.15541259765625
1766000559783512300,12.18451220703125,1.8263726234436035,3.269849300384521,-1.746720790863037,9.17419287109375
1766000559802292700,12.203292724609376,1.829601764678955,3.25766658782959,-1.598386287689209,9.192973388671875
1766000559821073000,12.222072998046874,1.6932473182678225,2.8465542793273926,-1.6865813732147217,9.211753662109373
1766000559839853300,12.240853271484376,1.614957332611084,2.549917221069336,-1.6978325843811035,9.230533935546875
1766000559858633700,12.2596337890625,1.3537592887878418,2.137847900390625,-1.61927592754364,9.249314453124999
1766000559877414100,12.2784140625,1.0941095352172852,1.6871848106384275,-1.295008897781372,9.268094726562499
1766000559896194600,12.297194580078123,0.8833451271057129,1.3313493728637695,-0.9884549379348756,9.286875244140623
1766000559914975000,12.31597509765625,0.6561527252197266,0.9600996971130372,-0.6895318627357483,9.305655761718748
1766000559933755100,12.334755126953125,0.3589711189270019,0.6755838394165039,-0.4491232633590698,9.324435791015624
1766000559952535600,12.35353564453125,0.1622028350830078,0.3177337646484375,-0.29678475856781,9.34321630859375
1766000559971316000,12.37231591796875,0.0417613983154296,-0.2956266403198242,-0.0839850306510925,9.36199658203125
1766000559990096400,12.391096435546874,-0.0690145492553711,-0.8813867568969727,0.4601792097091675,9.380777099609373
1766000560008876800,12.409876708984376,-0.316044807434082,-1.2724266052246094,1.3546950817108154,9.399557373046875
1766000560027657200,12.4286572265625,-0.7403345108032227,-1.258817195892334,2.130277395248413,9.418337890624999
1766000560046437400,12.447437255859375,-4.545320510864258,-6.5349836349487305,1.7424862384796143,9.437117919921874
1766000560065217800,12.4662177734375,-2.6428275108337402,-1.424238204956055,3.0648717880249023,9.455898437499998
1766000560083998200,12.484998291015623,-11.184408187866213,3.3435487747192383,1.1517568826675417,9.474678955078122
1766000560102778600,12.503778564453125,4.03217077255249,-9.301484107971191,3.999466180801392,9.493459228515624
1766000560121559000,12.52255908203125,0.1171073913574218,-7.036165237426758,-1.6959524154663086,9.51223974609375
1766000560140339200,12.541339111328124,-0.3764433860778808,-1.089754581451416,0.2859154343605041,9.531019775390623
1766000560159119600,12.56011962890625,-0.3974695205688476,-1.015833854675293,2.229913711547852,9.549800292968749
1766000560177900000,12.578900146484376,-0.3444194793701172,-2.8402528762817383,3.113537073135376,9.568580810546875
1766000560196680400,12.597680419921875,-0.6604213714599609,-1.2262325286865234,3.1282100677490234,9.587361083984375
1766000560215460900,12.6164609375,-0.7099456787109375,-0.7613344192504883,2.3782198429107666,9.606141601562499
1766000560234241300,12.6352412109375,-1.0548982620239258,-1.6170058250427246,0.1442980766296386,9.624921874999998
1766000560253021700,12.654021728515623,-1.581587314605713,-0.8495230674743652,-0.9824517965316772,9.643702392578122
1766000560271801900,12.6728017578125,-1.3286504745483398,-0.1241130828857421,-0.6477161645889282,9.662482421875
1766000560290582300,12.691582275390624,-0.6601977348327637,0.5708107948303223,-0.5233451128005981,9.681262939453124
1766000560309362700,12.71036279296875,-0.1969022750854492,1.1108298301696775,-0.628259003162384,9.70004345703125
1766000560328143000,12.72914306640625,0.0637135505676269,1.322286605834961,-1.013768434524536,9.718823730468749
1766000560346923500,12.747923583984376,0.1530561447143554,1.548104763031006,-1.4051527976989746,9.737604248046875
1766000560365704000,12.766703857421875,0.3512582778930664,1.822335720062256,-1.703426480293274,9.756384521484375
1766000560384484400,12.785484375,0.4864239692687988,2.0912089347839355,-1.5239503383636477,9.775165039062498
1766000560403264800,12.8042646484375,0.5932869911193848,2.25128173828125,-1.282558560371399,9.793945312499998
1766000560431435300,12.832435302734376,1.1965651512145996,2.225020408630371,-1.8975763320922847,9.822115966796876
1766000560450215700,12.851215576171874,1.7233858108520508,2.4177064895629883,-2.1832075119018555,9.840896240234374
1766000560468995800,12.869995849609374,1.9934196472167969,2.345567226409912,-2.349435329437256,9.859676513671873
1766000560487776300,12.8887763671875,2.0660672187805176,2.3628530502319336,-2.2723398208618164,9.878457031249999
1766000560506556700,12.907556640625,2.0161776542663574,2.631412506103516,-1.9657244682312007,9.897237304687499
1766000560525337000,12.926337158203124,1.6226115226745603,3.0036988258361816,-1.539392590522766,9.916017822265623
1766000560544117500,12.945117431640623,1.485736846923828,3.271282196044922,-1.3593144416809082,9.934798095703123
1766000560562898000,12.96389794921875,1.9458670616149905,3.1276063919067383,-1.7469801902770996,9.953578613281248
1766000560581678000,12.982677978515625,2.3648314476013184,2.9413843154907227,-1.9955989122390747,9.972358642578124
1766000560600458500,13.00145849609375,2.24692440032959,2.6770267486572266,-1.756604790687561,9.99113916015625
1766000560619239000,13.020239013671874,1.982673168182373,2.454698085784912,-1.4551796913146973,10.009919677734374
1766000560638019300,13.039019287109374,1.9223451614379885,2.133094310760498,-1.1699318885803225,10.028699951171873
1766000560656799700,13.0577998046875,1.80757474899292,1.9936261177062988,-0.9296313524246216,10.047480468749999
1766000560675580200,13.076580078125,1.550628662109375,1.7269392013549805,-0.7537432909011841,10.066260742187499
