time,seconds_elapsed,z,y,x,t
1766001307700679200,2.66067919921875,-0.4149654507637024,6.1295318603515625,0.8654555082321167,1.0611103515624998
1766001307719459800,2.6794599609375,-0.3111772537231445,2.994424819946289,-1.1372497081756592,1.0798911132812496
1766001307738240500,2.698240478515625,-2.607470989227295,1.722548484802246,-1.4955317974090576,1.098671630859375
1766001307757021400,2.717021484375,-4.9386067390441895,2.4980287551879883,0.5370926856994629,1.1174526367187498
1766001307775802000,2.735802001953125,-5.685437202453613,2.31862735748291,4.7116289138793945,1.1362331542968747
1766001307794582800,2.754582763671875,-2.9561004638671875,1.6488723754882812,6.538049697875977,1.155013916015625
1766001307813363500,2.773363525390625,12.379448890686035,0.2968530654907226,2.0924692153930664,1.1737946777343748
1766001307841534500,2.801534423828125,-7.279481887817383,4.000495910644531,-5.516095161437988,1.2019655761718746
1766001307860315400,2.8203154296875,10.59238052368164,0.894648551940918,-4.710513114929199,1.22074658203125
1766001307879096000,2.839095947265625,4.137978553771973,-7.124018669128418,-8.434749603271484,1.2395270996093748
1766001307897876700,2.857876708984375,-0.7936392426490784,-8.158747673034668,-5.799642086029053,1.2583078613281247
1766001307916657400,2.876657470703125,-1.097026824951172,-7.462829113006592,2.528776168823242,1.277088623046875
1766001307935438000,2.89543798828125,-1.131830811500549,-5.908536434173584,6.092588424682617,1.2958691406249998
1766001307954219000,2.914218994140625,-1.6787972450256348,-4.677350044250488,5.949900150299072,1.3146501464843747
1766001307972999700,2.932999755859375,-2.151830673217773,-4.397385120391846,5.980953693389893,1.3334309082031246
1766001307991780400,2.9517802734375,-2.4902503490448,-2.825984001159668,4.630425930023193,1.3522114257812499
1766001308010561000,2.97056103515625,-1.595768928527832,-0.4620132446289062,3.249067068099976,1.3709921874999997
1766001308029341700,2.989341796875,0.4862312078475952,1.898411750793457,1.6758801937103271,1.3897729492187496
1766001308048122400,3.008122314453125,2.5734331607818604,3.1286792755126958,-0.7221498489379883,1.4085534667968749
1766001308066903300,3.0269033203125,2.9545235633850098,2.157576560974121,-3.1164588928222656,1.4273344726562498
1766001308085684000,3.04568408203125,1.7447152137756348,1.8972053527832031,-5.687161922454834,1.4461152343749997
1766001308104464600,3.064464599609375,-0.7016271352767944,3.1562299728393555,-6.687822341918945,1.464895751953125
1766001308123245300,3.083245361328125,-2.748538017272949,4.125186920166016,-4.7214131355285645,1.4836765136718748
1766001308142026000,3.10202587890625,-2.248346328735352,4.575446128845215,-0.4310504198074341,1.5024570312499996
1766001308160807000,3.120806884765625,-3.1877498626708984,6.041160583496094,3.6097145080566406,1.521238037109375
1766001308179587600,3.139587646484375,-4.231365203857422,6.836907386779785,6.713125228881836,1.5400187988281249
1766001308198368300,3.1583681640625,-2.034839153289795,4.62367057800293,5.023621082305908,1.5587993164062497
1766001308217149000,3.17714892578125,7.336664199829102,2.016548156738281,-0.3767659664154053,1.577580078125
1766001308235929600,3.1959296875,3.2632763385772705,-3.504611015319824,-3.4412081241607666,1.5963608398437499
1766001308254710500,3.21471044921875,-9.46475315093994,-0.9265117645263672,-5.069461345672607,1.6151416015624998
1766001308273491200,3.2334912109375,10.553751945495604,-2.225679874420166,-2.477663040161133,1.6339223632812496
1766001308292271900,3.25227197265625,3.0583925247192383,-5.706522464752197,-1.973367691040039,1.652703125
1766001308311052500,3.271052490234375,-0.5768872499465942,-6.221999168395996,-5.315834045410156,1.6714836425781248
1766001308329833200,3.289833251953125,-0.4924637079238891,-5.726110935211182,0.0993685722351074,1.6902644042968746
1766001308348614000,3.30861376953125,-0.3746107518672943,-4.925809860229492,5.141210556030273,1.709044921875
1766001308367394800,3.327394775390625,-2.125932216644287,-3.250418186187744,6.291408538818359,1.7278259277343748
1766001308386175500,3.346175537109375,-2.999368190765381,-2.34817123413086,7.059436798095703,1.7466066894531247
1766001308404956200,3.3649560546875,-2.568286180496216,-1.6174044609069824,6.240455627441406,1.76538720703125
1766001308423736800,3.38373681640625,-0.4591450691223144,-1.0959815979003906,3.8352479934692383,1.7841679687499998
1766001308442517500,3.402517578125,2.763462543487549,0.0119352340698242,0.736177921295166,1.8029487304687497
1766001308461298400,3.42129833984375,4.157525062561035,3.94058609008789,-2.883660078048706,1.8217294921875
1766001308489469400,3.449469482421875,-0.4779635667800903,6.766623497009277,-4.023709774017334,1.8499006347656248
1766001308508250000,3.46825,-0.26515793800354,2.530177116394043,-4.356640815734863,1.8686811523437497
1766001308527030800,3.48703076171875,-4.9406046867370605,0.5034637451171875,-3.426926851272583,1.8874619140625
1766001308545811700,3.505811767578125,-2.847395181655884,4.142280578613281,-3.5585944652557373,1.906242919921875
1766001308564592400,3.52459228515625,1.990410566329956,7.390713691711426,-2.4599273204803467,1.9250234374999997
1766001308583373000,3.543373046875,4.179948329925537,5.811875343322754,-1.6985647678375244,1.94380419921875
1766001308602153700,3.56215380859375,12.959906578063965,-0.8351631164550781,-3.1692168712615967,1.9625849609375
1766001308620934400,3.580934326171875,-10.01666259765625,-4.332189559936523,-0.2257802486419677,1.9813654785156247
1766001308639715000,3.599715087890625,-2.5591042041778564,-1.3533296585083008,-0.0502064228057861,2.000146240234375
1766001308658496000,3.61849609375,6.1971435546875,-1.6143341064453125,2.6196441650390625,2.01892724609375
1766001308677276700,3.637276611328125,0.4493961334228515,-3.773829936981201,-3.463606119155884,2.037707763671875
1766001308696057300,3.656057373046875,-1.2588601112365725,-5.338464260101318,-2.503968954086304,2.0564885253906247
1766001308724228400,3.684228271484375,-0.0998890399932861,-5.264639854431152,1.4758975505828855,2.084659423828125
1766001308743009300,3.70300927734375,0.0905023217201232,-2.7484378814697266,1.288022756576538,2.1034404296875
1766001308761790000,3.7217900390625,0.8401569724082947,-2.5821175575256348,2.8675975799560547,2.1222211914062497
1766001308780570600,3.740570556640625,0.3470643162727356,-2.395193099975586,2.915348768234253,2.141001708984375
1766001308799351300,3.759351318359375,-0.2817863523960113,-1.2722864151000977,0.3997189998626709,2.159782470703125
1766001308818132000,3.778132080078125,-1.12682843208313,0.2324934005737304,-2.494822263717652,2.1785632324218747
1766001308836913000,3.796912841796875,-1.3341538906097412,2.404684066772461,-3.3864572048187256,2.197343994140625
1766001308855693600,3.815693603515625,-3.184051990509033,4.09990119934082,0.8898508548736572,2.216124755859375
1766001308874474200,3.83447412109375,-6.039510250091553,4.478445053100586,6.619694232940674,2.2349052734374997
1766001308893255000,3.8532548828125,-7.56166410446167,4.318817138671875,10.31722640991211,2.25368603515625
1766001308912035800,3.872035888671875,-5.435262203216553,5.797524452209473,8.387534141540527,2.272467041015625
1766001308930816500,3.89081640625,-1.0726895332336426,8.062707901000977,2.7466812133789062,2.2912475585937497
1766001308949597200,3.90959716796875,4.172105312347412,8.408767700195312,-3.362392902374268,2.3100283203124996
1766001308968377900,3.9283779296875,9.273514747619627,3.5334577560424805,-7.547202110290527,2.32880908203125
1766001308987158500,3.947158447265625,-5.347742557525635,-3.791881561279297,-1.6848387718200684,2.3475895996093747
1766001309005939200,3.965939208984375,-8.528285026550293,-0.821650505065918,1.1581618785858154,2.3663703613281246
1766001309024720100,3.98472021484375,4.632939338684082,-0.6428813934326172,7.194540023803711,2.3851513671875
1766001309043500800,4.003500732421875,-0.0741944313049316,-3.655406951904297,2.6232244968414307,2.403931884765625
1766001309062281500,4.022281494140625,-2.6859939098358154,-6.57853889465332,-0.2289142608642578,2.4227126464843747
1766001309081062100,4.041062255859375,-2.402411699295044,-8.116835594177246,2.307347536087036,2.4414934082031245
1766001309099843000,4.059843017578125,-1.8363343477249143,-6.99226188659668,3.525559186935425,2.4602741699218744
1766001309128014000,4.08801416015625,-1.610137701034546,-5.040657043457031,4.343808174133301,2.4884453125
1766001309146794800,4.106794677734375,-1.8811795711517332,-3.2117156982421875,4.6483659744262695,2.507225830078125
1766001309165575400,4.125575439453125,-0.9090195894241332,-1.393601894378662,4.196943759918213,2.526006591796875
1766001309184356000,4.144356201171875,0.9291765689849854,0.3242759704589844,1.6837208271026611,2.5447873535156247
1766001309203137000,4.163136962890625,2.0972132682800293,2.059503555297852,-2.342503547668457,2.5635681152343746
1766001309221917700,4.181917724609375,1.074782371520996,3.742539405822754,-5.435031414031982,2.5823488769531244
1766001309240698400,4.200698486328125,-0.2924507856369018,4.349136352539063,-6.337935447692871,2.601129638671875
1766001309259479000,4.21947900390625,-1.560956954956055,4.163168907165527,-3.8484678268432617,2.61991015625
1766001309278259700,4.238259765625,-3.1432785987854004,5.049352645874023,-0.9364274740219116,2.63869091796875
1766001309297040600,4.25704052734375,-2.8342597484588623,8.017030715942383,-0.3686630725860595,2.6574716796874998
1766001309315821300,4.2758212890625,-1.114280104637146,9.219576835632324,-1.5601518154144287,2.6762524414062496
1766001309334602000,4.29460205078125,0.8185051679611206,7.498602867126465,-2.541456460952759,2.6950332031249995
1766001309353382700,4.313382568359375,10.888832092285156,2.0106801986694336,-5.5826849937438965,2.713813720703125
1766001309372163600,4.33216357421875,-8.824304580688477,-2.3990025520324707,-1.5468125343322754,2.7325947265625
1766001309390944300,4.3509443359375,-2.888446807861328,0.6437349319458008,3.4980101585388184,2.75137548828125
1766001309409725000,4.369724853515625,7.031650543212891,-2.0254874229431152,4.921482086181641,2.770156005859375
1766001309428505600,4.388505615234375,1.594083547592163,-6.039541244506836,-5.893869400024414,2.7889367675781247
1766001309447286300,4.407286376953125,-2.37074875831604,-7.114019870758057,-5.036914825439453,2.8077175292968746
1766001309475457500,4.43545751953125,-2.133923053741455,-7.171474456787109,3.6440489292144775,2.8358886718749994
1766001309494238200,4.45423828125,-2.768212080001831,-6.043910980224609,5.269207000732422,2.85466943359375
1766001309522409200,4.4824091796875,-3.13614273071289,-5.493718147277832,6.440457344055176,2.88284033203125
1766001309550580200,4.510580322265625,-1.6644870042800903,-2.317790031433105,3.320502758026123,2.9110114746093747
1766001309569361200,4.529361083984375,0.6282792091369629,-0.168370246887207,0.2237356901168823,2.9297922363281246
1766001309588141800,4.548141845703125,2.6496119499206543,3.0036449432373047,-3.721544742584229,2.9485729980468744
1766001309606922500,4.566922607421875,3.089396953582764,5.696821212768555,-5.794795989990234,2.967353759765625
1766001309625703200,4.585703125,-1.2248785495758057,5.728000640869141,-3.561525821685791,2.98613427734375
1766001309644484000,4.604484130859375,-4.852148056030273,4.733746528625488,0.1814103126525879,3.004915283203125
1766001309663264800,4.6232646484375,-6.889206409454346,7.094753265380859,2.219350576400757,3.0236958007812498
1766001309682045400,4.64204541015625,0.644177258014679,11.168752670288086,-0.3818929195404053,3.0424765624999996
1766001309700826000,4.660826171875,8.21739387512207,10.99490451812744,-3.875970363616944,3.0612573242187495
1766001309719607000,4.67960693359375,7.343494415283203,2.015705108642578,-5.197266578674316,3.0800380859374994
1766001309738387700,4.6983876953125,-8.262001991271973,-0.0170068740844726,-0.3462681770324707,3.09881884765625
