time,seconds_elapsed,z,y,x,t
1766001307735893000,2.69589306640625,-0.258395791053772,-0.4305832982063293,-0.1689804643392563,1.0141586914062501
1766001307754673700,2.714673583984375,-0.5114465355873108,-0.787939190864563,-0.6411789655685425,1.032939208984375
1766001307773454600,2.73345458984375,-1.1246020793914795,-0.5661953091621399,-1.26899516582489,1.05172021484375
1766001307792235300,2.7522353515625,-2.022420644760132,-0.0475710928440094,-1.7401247024536133,1.0705009765625002
1766001307811016000,2.771015869140625,-2.593579053878784,0.2870301008224487,-1.22944176197052,1.089281494140625
1766001307829796600,2.789796630859375,-1.662621259689331,-0.4443277716636657,-0.5894081592559814,1.108062255859375
1766001307848577300,2.808577392578125,-0.5083922147750854,0.0581085123121738,-1.400025725364685,1.1268430175781252
1766001307867358000,2.82735791015625,-1.186299443244934,-3.056080102920532,-0.6914225816726685,1.14562353515625
1766001307886139000,2.846138916015625,-0.5254964232444763,-3.5206427574157715,-0.0628427118062973,1.164404541015625
1766001307904919600,2.86491943359375,0.5033525824546814,-2.33678674697876,0.3636936247348785,1.1831850585937498
1766001307923700200,2.8837001953125,0.8891136646270752,-1.7807471752166748,0.7653372287750244,1.2019658203125
1766001307942481000,2.90248095703125,0.7252492308616638,-0.3986656367778778,1.1497238874435425,1.22074658203125
1766001307961261600,2.921261474609375,0.8353576064109802,0.5038870573043823,1.4156028032302856,1.2395270996093748
1766001307980042500,2.94004248046875,0.9195042252540588,0.9191223978996276,1.5173118114471436,1.2583081054687502
1766001307998823200,2.9588232421875,0.9306524991989136,1.2470040321350098,1.4450769424438477,1.2770888671875
1766001308017603800,2.977603759765625,0.9695951342582704,1.424765706062317,1.314504623413086,1.2958693847656249
1766001308036384500,2.996384521484375,0.9947932958602904,1.4757729768753052,1.2355504035949707,1.3146501464843752
1766001308055165200,3.015165283203125,0.8811724185943604,1.3754384517669678,1.2105048894882202,1.333430908203125
1766001308073945900,3.03394580078125,0.7241802215576172,0.7906880974769592,1.1367429494857788,1.3522114257812499
1766001308092726800,3.052726806640625,0.8604030609130859,-0.1098792999982833,1.026481866836548,1.3709924316406248
1766001308111507500,3.071507568359375,1.0401500463485718,-1.0292308330535889,0.7401390671730042,1.389773193359375
1766001308130288000,3.0902880859375,0.8857539296150208,-1.5362485647201538,0.2819904685020447,1.4085537109375
1766001308149068800,3.10906884765625,0.3906480371952057,-1.465388298034668,-0.170965775847435,1.4273344726562498
1766001308167849500,3.127849365234375,-0.3665188550949096,-1.352683663368225,-0.6854666471481323,1.446114990234375
1766001308186630400,3.14663037109375,-1.3623812198638916,-1.0000619888305664,-1.2709804773330688,1.46489599609375
1766001308205411000,3.1654111328125,-2.251953125,-0.385532021522522,-1.6648355722427368,1.4836767578124999
1766001308224191700,3.184191650390625,-2.503018379211426,0.2717584669589996,-0.7234929800033569,1.5024572753906251
1766001308242972400,3.202972412109375,-1.1910336017608645,-0.8757510185241699,-0.1077412739396095,1.521238037109375
1766001308261753000,3.221753173828125,-0.0557414107024669,0.3284161686897278,-1.1408662796020508,1.5400187988281249
1766001308280534000,3.240533935546875,-0.4457785785198211,-1.7179808616638184,-0.3763690590858459,1.5587995605468752
1766001308299314700,3.259314697265625,-0.4529562294483185,-2.347476959228516,0.0973565727472305,1.577580322265625
1766001308318095400,3.278095458984375,0.3437641561031341,-1.2815179824829102,0.3632354736328125,1.596361083984375
1766001308336876000,3.2968759765625,0.9621120095252992,-1.2105048894882202,0.5512291193008423,1.6151416015625002
1766001308355656700,3.31565673828125,0.8063415288925171,-0.6000983119010925,0.7743474841117859,1.63392236328125
1766001308374437400,3.334437255859375,0.6829468011856079,0.1790597438812255,0.8441387414932251,1.652702880859375
1766001308393218300,3.35321826171875,0.6443096399307251,0.8366556763648987,0.7807615399360657,1.6714838867187498
1766001308411999000,3.3719990234375,0.6036871075630188,1.4088832139968872,0.7071523666381836,1.6902646484375001
1766001308430779600,3.390779541015625,0.6230821013450623,1.845651626586914,0.7173843383789062,1.709045166015625
1766001308449560300,3.409560302734375,0.7308996915817261,2.119166374206543,0.8325323462486267,1.7278259277343748
1766001308468341200,3.42834130859375,0.8530726432800293,2.2834889888763428,0.8462768197059631,1.7466069335937502
1766001308496512300,3.45651220703125,0.1977674663066864,1.2579996585845947,0.2144898921251297,1.77477783203125
1766001308515293000,3.47529296875,-0.3527744114398956,0.3418551981449127,-0.2641226649284363,1.7935585937499998
1766001308534073600,3.494073486328125,-1.0151045322418213,-0.475176453590393,-1.169729709625244,1.812339111328125
1766001308552854300,3.512854248046875,-1.681710720062256,-0.5790234804153442,-1.914679288864136,1.831119873046875
1766001308571635200,3.53163525390625,-1.976911187171936,-0.8693369626998901,-2.078085660934448,1.8499008789062499
1766001308590416000,3.550415771484375,-2.191935539245605,-0.8667407631874084,-1.6901865005493164,1.8686813964843751
1766001308609196500,3.569196533203125,-1.488066554069519,-0.4359283745288849,-0.2569449841976166,1.887462158203125
1766001308627977200,3.587977294921875,-0.3263545036315918,-0.4215730428695678,-0.922787606716156,1.906242919921875
1766001308646758000,3.6067578125,-0.4961749315261841,-0.0205403286963701,-1.1130720376968384,1.9250234375000002
1766001308665538600,3.62553857421875,-1.0315978527069092,-2.325485944747925,-0.6196459531784058,1.94380419921875
1766001308684319500,3.644319580078125,-0.4482220411300659,-1.1982876062393188,-0.1821140646934509,1.962585205078125
1766001308703100200,3.66310009765625,0.2964221239089966,-0.9424880146980286,0.0762817412614822,1.9813657226562502
1766001308731271200,3.691271240234375,0.4897608458995819,-0.4566977918148041,0.5003746151924133,2.009536865234375
1766001308750051800,3.7100517578125,0.5198459029197693,0.5087739825248718,0.6902008652687073,2.0283173828125
1766001308768832800,3.728832763671875,0.444404125213623,1.0787107944488523,0.8195514678955078,2.047098388671875
1766001308787613400,3.747613525390625,0.3283398151397705,1.3015238046646118,0.8952987194061279,2.065879150390625
1766001308806394000,3.76639404296875,0.3530798554420471,1.2410482168197632,0.941419005393982,2.08465966796875
1766001308825174800,3.7851748046875,0.5450441241264343,0.8482621312141418,0.8378773927688599,2.1034404296875
1766001308843955500,3.80395556640625,0.6991347670555115,0.4854084253311157,0.575663685798645,2.12222119140625
1766001308862736400,3.822736328125,0.5781835317611694,0.1074358448386192,0.1540142893791198,2.141001953125
1766001308881517000,3.84151708984375,-0.1211039423942565,0.0051159923896193,-0.4191296100616455,2.15978271484375
1766001308900297700,3.860297607421875,-1.1797325611114502,0.307646781206131,-1.1895828247070312,2.178563232421875
1766001308919078400,3.879078369140625,-1.986532211303711,0.3560578227043152,-1.871918797492981,2.197343994140625
1766001308937859300,3.897859375,-2.3707661628723145,-0.4345539212226867,-2.264704704284668,2.216125
1766001308956640000,3.916639892578125,-2.204305648803711,-1.550451159477234,-2.0925936698913574,2.234905517578125
1766001308975420700,3.935420654296875,-1.1110103130340576,-2.082819938659668,-0.8467349410057068,2.253686279296875
1766001308994201300,3.954201416015625,-0.0119118634611368,-2.4343724250793457,-0.7259364128112793,2.272467041015625
1766001309012982000,3.97298193359375,0.5514581799507141,-1.1701878309249878,-1.0748928785324097,2.29124755859375
1766001309031762700,3.9917626953125,-0.0125227281823754,-2.2263729572296143,-0.2801578640937805,2.3100283203125
1766001309050543600,4.010543701171875,-0.0699440166354179,-0.7670170664787292,0.4206567704677582,2.3288093261718754
1766001309069324300,4.02932421875,0.6458367705345154,0.0607046857476234,0.7810669541358948,2.3475898437500002
1766001309088105000,4.04810498046875,1.1003202199935913,0.4554760456085205,1.0932189226150513,2.36637060546875
1766001309106885600,4.0668857421875,1.1710277795791626,1.1730895042419434,1.3619993925094604,2.3851513671875
1766001309135057000,4.095056884765625,1.4752384424209597,1.8256458044052124,1.5284600257873535,2.413322509765625
1766001309153837600,4.113837646484375,1.5755729675292969,2.23843765258789,1.4325542449951172,2.4321032714843747
1766001309172618200,4.1326181640625,1.530979871749878,2.5030946731567383,1.313130259513855,2.4508837890625004
1766001309191399000,4.15139892578125,1.519526124000549,2.633819818496704,1.2324960231781006,2.4696645507812502
1766001309210179800,4.170179931640625,1.56350839138031,2.348851442337036,1.1420880556106567,2.488445556640625
1766001309228960500,4.18896044921875,1.4314088821411133,1.5509092807769775,0.8755983114242554,2.50722607421875
1766001309247741200,4.2077412109375,1.1638500690460205,0.5776489973068237,0.432110458612442,2.5260068359375
1766001309266521900,4.22652197265625,0.6725621223449707,0.0251218136399984,-0.0633008629083633,2.5447875976562497
1766001309285302500,4.245302490234375,-0.1673769503831863,-0.4029416739940643,-0.69722580909729,2.5635681152343746
1766001309304083200,4.264083251953125,-1.0021237134933472,-0.6950877904891968,-1.3222931623458862,2.5823488769531253
1766001309322864000,4.282864013671875,-1.4262166023254397,-1.184695839881897,-1.7260748147964478,2.601129638671875
1766001309341644800,4.301644775390625,-1.7869322299957275,-1.906432628631592,-1.774333119392395,2.619910400390625
1766001309369815800,4.32981591796875,-0.6149880886077881,-1.932547092437744,-0.6428588032722473,2.64808154296875
1766001309388596500,4.348596435546875,0.0340557098388671,-0.0568867810070514,-1.2880847454071045,2.6668620605468747
1766001309407377400,4.36737744140625,-0.9761618971824646,-1.6981277465820312,-0.7854957580566406,2.6856430664062496
1766001309426158000,4.386157958984375,-1.0642791986465454,-1.4609594345092771,0.2063959389925003,2.7044235839843753
1766001309454329000,4.4143291015625,0.5537489056587219,-0.4482983946800232,0.7589231133460999,2.7325947265625
1766001309473109800,4.43310986328125,0.8949168920516968,-0.3575849831104278,1.1181116104125977,2.75137548828125
1766001309491890700,4.451890625,0.7548761367797852,0.4428006112575531,1.3766601085662842,2.77015625
1766001309510671400,4.47067138671875,0.7648026943206787,0.8206204771995544,1.4475204944610596,2.7889370117187497
1766001309529452000,4.4894521484375,0.7927497625350952,1.022663950920105,1.409188747406006,2.8077177734374996
1766001309548232700,4.508232666015625,0.8486438989639282,1.26426100730896,1.3493239879608154,2.8264982910156253
1766001309567013400,4.527013427734375,0.989295482635498,1.3484076261520386,1.3476440906524658,2.845279052734375
1766001309585794300,4.545794189453125,1.120631456375122,1.3829214572906494,1.3888773918151855,2.864059814453125
1766001309604575000,4.564574951171875,0.9512691497802734,1.2218059301376345,1.3484076261520386,2.882840576171875
1766001309623355600,4.583355712890625,0.5844448804855347,0.208381250500679,0.9437097311019896,2.901621337890625
1766001309642136300,4.60213623046875,0.0410806573927402,-0.6590467095375061,0.2474765926599502,2.9204018554687496
1766001309660917200,4.620917236328125,-0.8471167087554932,-1.2215005159378052,-0.81099933385849,2.9391828613281246
1766001309679698000,4.639697998046875,-1.9564471244812007,-1.5498403310775757,-1.768988013267517,2.9579636230468753
1766001309698478600,4.658478515625,-2.3429718017578125,-2.829143762588501,-2.097327947616577,2.976744140625
1766001309717259300,4.67725927734375,-1.5850414037704468,-3.1156394481658936,-0.882317841053009,2.99552490234375
1766001309736040000,4.6960400390625,-0.430506944656372,-2.0680062770843506,-1.2231804132461548,3.0143056640625
1766001309754820900,4.71482080078125,-0.5374082922935486,-1.5441898107528689,-1.4327069520950315,3.0330864257812498
