time,seconds_elapsed,z,y,x,t
1766001308750051800,3.7100517578125,0.5198459029197693,0.5087739825248718,0.6902008652687073,2.0283173828125
1766001308768832800,3.728832763671875,0.444404125213623,1.0787107944488523,0.8195514678955078,2.047098388671875
1766001308787613400,3.747613525390625,0.3283398151397705,1.3015238046646118,0.8952987194061279,2.065879150390625
1766001308806394000,3.76639404296875,0.3530798554420471,1.2410482168197632,0.941419005393982,2.08465966796875
1766001308825174800,3.7851748046875,0.5450441241264343,0.8482621312141418,0.8378773927688599,2.1034404296875
1766001308843955500,3.80395556640625,0.6991347670555115,0.4854084253311157,0.575663685798645,2.12222119140625
1766001308862736400,3.822736328125,0.5781835317611694,0.1074358448386192,0.1540142893791198,2.141001953125
1766001308881517000,3.84151708984375,-0.1211039423942565,0.0051159923896193,-0.4191296100616455,2.15978271484375
1766001308900297700,3.860297607421875,-1.1797325611114502,0.307646781206131,-1.1895828247070312,2.178563232421875
1766001308919078400,3.879078369140625,-1.986532211303711,0.3560578227043152,-1.871918797492981,2.197343994140625
1766001308937859300,3.897859375,-2.3707661628723145,-0.4345539212226867,-2.264704704284668,2.216125
1766001308956640000,3.916639892578125,-2.204305648803711,-1.550451159477234,-2.0925936698913574,2.234905517578125
1766001308975420700,3.935420654296875,-1.1110103130340576,-2.082819938659668,-0.8467349410057068,2.253686279296875
1766001308994201300,3.954201416015625,-0.0119118634611368,-2.4343724250793457,-0.7259364128112793,2.272467041015625
1766001309012982000,3.97298193359375,0.5514581799507141,-1.1701878309249878,-1.0748928785324097,2.29124755859375
1766001309031762700,3.9917626953125,-0.0125227281823754,-2.2263729572296143,-0.2801578640937805,2.3100283203125
1766001309050543600,4.010543701171875,-0.0699440166354179,-0.7670170664787292,0.4206567704677582,2.3288093261718754
1766001309069324300,4.02932421875,0.6458367705345154,0.0607046857476234,0.7810669541358948,2.3475898437500002
1766001309088105000,4.04810498046875,1.1003202199935913,0.4554760456085205,1.0932189226150513,2.36637060546875
1766001309106885600,4.0668857421875,1.1710277795791626,1.1730895042419434,1.3619993925094604,2.3851513671875
1766001309135057000,4.095056884765625,1.4752384424209597,1.8256458044052124,1.5284600257873535,2.413322509765625
1766001309153837600,4.113837646484375,1.5755729675292969,2.23843765258789,1.4325542449951172,2.4321032714843747
1766001309172618200,4.1326181640625,1.530979871749878,2.5030946731567383,1.313130259513855,2.4508837890625004
1766001309191399000,4.15139892578125,1.519526124000549,2.633819818496704,1.2324960231781006,2.4696645507812502
1766001309210179800,4.170179931640625,1.56350839138031,2.348851442337036,1.1420880556106567,2.488445556640625
1766001309228960500,4.18896044921875,1.4314088821411133,1.5509092807769775,0.8755983114242554,2.50722607421875
1766001309247741200,4.2077412109375,1.1638500690460205,0.5776489973068237,0.432110458612442,2.5260068359375
1766001309266521900,4.22652197265625,0.6725621223449707,0.0251218136399984,-0.0633008629083633,2.5447875976562497
1766001309285302500,4.245302490234375,-0.1673769503831863,-0.4029416739940643,-0.69722580909729,2.5635681152343746
1766001309304083200,4.264083251953125,-1.0021237134933472,-0.6950877904891968,-1.3222931623458862,2.5823488769531253
1766001309322864000,4.282864013671875,-1.4262166023254397,-1.184695839881897,-1.7260748147964478,2.601129638671875
1766001309341644800,4.301644775390625,-1.7869322299957275,-1.906432628631592,-1.774333119392395,2.619910400390625
1766001309369815800,4.32981591796875,-0.6149880886077881,-1.932547092437744,-0.6428588032722473,2.64808154296875
1766001309388596500,4.348596435546875,0.0340557098388671,-0.0568867810070514,-1.2880847454071045,2.6668620605468747
1766001309407377400,4.36737744140625,-0.9761618971824646,-1.6981277465820312,-0.7854957580566406,2.6856430664062496
1766001309426158000,4.386157958984375,-1.0642791986465454,-1.4609594345092771,0.2063959389925003,2.7044235839843753
1766001309454329000,4.4143291015625,0.5537489056587219,-0.4482983946800232,0.7589231133460999,2.7325947265625
1766001309473109800,4.43310986328125,0.8949168920516968,-0.3575849831104278,1.1181116104125977,2.75137548828125
1766001309491890700,4.451890625,0.7548761367797852,0.4428006112575531,1.3766601085662842,2.77015625
1766001309510671400,4.47067138671875,0.7648026943206787,0.8206204771995544,1.4475204944610596,2.7889370117187497
1766001309529452000,4.4894521484375,0.7927497625350952,1.022663950920105,1.409188747406006,2.8077177734374996
1766001309548232700,4.508232666015625,0.8486438989639282,1.26426100730896,1.3493239879608154,2.8264982910156253
1766001309567013400,4.527013427734375,0.989295482635498,1.3484076261520386,1.3476440906524658,2.845279052734375
1766001309585794300,4.545794189453125,1.120631456375122,1.3829214572906494,1.3888773918151855,2.864059814453125
1766001309604575000,4.564574951171875,0.9512691497802734,1.2218059301376345,1.3484076261520386,2.882840576171875
1766001309623355600,4.583355712890625,0.5844448804855347,0.208381250500679,0.9437097311019896,2.901621337890625
1766001309642136300,4.60213623046875,0.0410806573927402,-0.6590467095375061,0.2474765926599502,2.9204018554687496
1766001309660917200,4.620917236328125,-0.8471167087554932,-1.2215005159378052,-0.81099933385849,2.9391828613281246
1766001309679698000,4.639697998046875,-1.9564471244812007,-1.5498403310775757,-1.768988013267517,2.9579636230468753
1766001309698478600,4.658478515625,-2.3429718017578125,-2.829143762588501,-2.097327947616577,2.976744140625
1766001309717259300,4.67725927734375,-1.5850414037704468,-3.1156394481658936,-0.882317841053009,2.99552490234375
1766001309736040000,4.6960400390625,-0.430506944656372,-2.0680062770843506,-1.2231804132461548,3.0143056640625
1766001309754820900,4.71482080078125,-0.5374082922935486,-1.5441898107528689,-1.4327069520950315,3.0330864257812498
1766001309773601500,4.7336015625,-0.9808961153030396,-2.328540086746216,-0.6961567997932434,3.0518671874999996
1766001309792382200,4.75238232421875,-0.4100429713726043,-0.8293253183364868,-0.0875827372074127,3.0706479492187504
1766001309811163000,4.771162841796875,0.3034470677375793,-0.4559341967105865,0.21479532122612,3.089428466796875
1766001309829943800,4.78994384765625,0.504421591758728,-0.1054505333304405,0.6097193956375122,3.10820947265625
1766001309848724500,4.808724365234375,0.711046576499939,0.3948477208614349,0.9687551856040956,3.126989990234375
1766001309867505200,4.827505126953125,1.0308343172073364,1.008461356163025,1.0096831321716309,3.145770751953125
1766001309886285800,4.846285888671875,0.9699005484580994,1.4550034999847412,0.988150119781494,3.1645515136718747
1766001309905066500,4.86506640625,0.7310523986816406,1.8250348567962649,0.9886083006858826,3.1833320312500004
1766001309933237800,4.89323779296875,0.7692314982414246,2.446742534637451,1.0677152872085571,3.2115034179687503
1766001309952018400,4.912018310546875,0.8242093324661255,2.400164127349853,1.1162790060043335,3.230283935546875
1766001309970799000,4.930799072265625,0.8290961980819702,1.5625157356262207,0.9675334692001344,3.249064697265625
1766001309989579800,4.949579833984375,0.6553052067756653,0.5432878732681274,0.5625301003456116,3.267845458984375
1766001310008360700,4.968360595703125,0.3080285787582397,-0.1023962050676345,0.0043524117209017,3.2866262207031247
1766001310027141400,4.987141357421875,-0.3092502951622009,-0.4571559429168701,-0.519769549369812,3.3054069824218746
1766001310045922000,5.005922119140625,-0.9173662066459656,-0.7830522656440735,-0.9302706718444824,3.3241877441406253
1766001310064702700,5.02470263671875,-1.500589370727539,-0.8939242362976074,-1.409799575805664,3.34296826171875
1766001310092874000,5.0528740234375,-2.612363338470459,-0.5103011727333069,-2.499887704849243,3.3711396484375
1766001310111654700,5.071654541015625,-3.632812738418579,-0.7552579641342163,-2.686964988708496,3.389920166015625
1766001310130435300,5.090435302734375,-3.046993494033813,-1.5713733434677124,-1.369329810142517,3.4087009277343747
1766001310149216000,5.109216064453125,-1.3684898614883425,-0.1523344069719314,-2.5615851879119877,3.4274816894531246
1766001310167997000,5.127996826171875,-1.8529056310653689,-2.116875648498535,-2.086484909057617,3.4462624511718754
1766001310186777600,5.146777587890625,-1.8049527406692505,-2.476063966751098,-0.5962803959846497,3.4650432128906252
1766001310205558300,5.165558349609375,-0.6426297426223755,-1.797087788581848,-0.0255799628794193,3.483823974609375
1766001310224339000,5.1843388671875,0.4384481906890869,-1.7932698726654053,0.5054142475128174,3.5026044921875
1766001310243119600,5.20311962890625,0.5164861679077148,-0.5086212754249573,0.8349757790565491,3.52138525390625
1766001310261900500,5.221900634765625,0.5632173418998718,0.4374555349349975,1.2813652753829956,3.5401662597656247
1766001310280681200,5.24068115234375,0.7417425513267517,0.9105703234672546,1.7144683599472046,3.5589467773437504
1766001310299462000,5.2594619140625,1.0456477403640747,1.1733949184417725,2.0202062129974365,3.5777275390625003
1766001310318242600,5.27824267578125,1.3222168684005735,1.0012837648391724,2.2355360984802246,3.59650830078125
1766001310337023500,5.2970234375,1.5654937028884888,0.568027913570404,2.172158718109131,3.6152890625
1766001310355804200,5.31580419921875,1.729358196258545,0.2717584669589996,1.9980623722076416,3.63406982421875
1766001310374584800,5.334584716796875,1.7336342334747314,-0.048334676772356,2.002338409423828,3.6528503417968747
1766001310393365500,5.353365478515625,1.8997894525527956,-0.6986002326011658,1.7680717706680298,3.6716311035156246
1766001310412146200,5.372146240234375,1.9972224235534668,-1.2667044401168823,1.3758965730667114,3.6904118652343754
1766001310430927000,5.390927001953125,1.810755968093872,-1.830227255821228,0.9687551856040956,3.7091926269531252
1766001310449707800,5.409707763671875,1.426674723625183,-2.172616958618164,0.5825359225273132,3.727973388671875
1766001310468488400,5.428488525390625,0.8912517428398132,-2.4501023292541504,0.2332739830017089,3.746754150390625
1766001310487269400,5.447269287109375,0.4683805704116821,-2.513174057006836,-0.0232892204076051,3.765534912109375
1766001310506050000,5.466050048828125,0.3365865051746368,-2.2208752632141118,-0.1288161128759384,3.7843156738281247
1766001310524830700,5.484830810546875,0.3155116438865661,-1.7144683599472046,-0.1605810821056366,3.8030964355468746
1766001310543611400,5.503611328125,0.2023489624261856,-1.2680789232254028,-0.2144898921251297,3.8218769531250003
1766001310571782700,5.53178271484375,0.0868955180048942,-0.8992693424224854,-0.2738964855670929,3.85004833984375
1766001310590563300,5.550563232421875,0.0500909127295017,-0.6969203352928162,-0.1914297491312027,3.868828857421875
1766001310609344000,5.569343994140625,0.0320704020559787,-0.5555051565170288,-0.0274125561118125,3.887609619140625
1766001310628124700,5.588124755859375,0.098501943051815,-0.4734965562820434,0.1204167231917381,3.9063903808593747
1766001310646905300,5.6069052734375,0.2057087123394012,-0.5498546361923218,0.2135736048221588,3.9251708984374996
1766001310665686300,5.625686279296875,0.268169641494751,-0.8659771680831909,0.3365101218223572,3.9439519042968754
1766001310684467000,5.644467041015625,0.5345066785812378,-1.0252602100372314,0.2213621288537979,3.9627326660156252
1766001310703247600,5.66324755859375,0.3237583339214325,-1.064660906791687,-0.3415497839450836,3.98151318359375
1766001310731419000,5.6914189453125,-0.2677114903926849,-1.7198134660720823,-0.7708349823951721,4.0096845703124995
1766001310750199600,5.710199462890625,0.0788015574216842,-1.1223876476287842,-0.2612210512161255,4.028465087890625
1766001310768980200,5.728980224609375,0.2050978541374206,-0.5836049318313599,-0.0552069060504436,4.047245849609375
1766001310787761000,5.747760986328125,0.0488691814243793,-0.376827210187912,-0.0578030794858932,4.066026611328125
