time,seconds_elapsed,z,y,x,t
1766001237683705000,11.609705078125,1.092531681060791,0.3481165766716003,1.145753264427185,9.249240478515624
1766001237702485200,11.6284853515625,0.8940005898475647,1.1620938777923584,1.172325849533081,9.268020751953124
1766001237721265400,11.647265380859375,0.7589994668960571,1.4684425592422483,0.9113339185714722,9.286800781250001
1766001237740045600,11.666045654296877,0.638353705406189,1.539913773536682,0.6211731433868408,9.3055810546875
1766001237758825700,11.68482568359375,0.7466294765472412,1.3112976551055908,0.2439641207456588,9.324361083984375
1766001237777606000,11.70360595703125,0.9097303748130798,0.9229403138160706,-0.3207803666591644,9.343141357421874
1766001237796386300,11.72238623046875,0.7785471677780151,0.4014145135879516,-0.8137482404708862,9.361921630859374
1766001237815166500,11.74116650390625,0.3558287322521209,-0.1703549176454544,-1.0848194360733032,9.380701904296874
1766001237833946600,11.759946533203124,-0.0937677472829818,-0.2566395699977875,-1.2079087495803833,9.399481933593748
1766001237852726800,11.778726806640623,-0.2116646468639373,-0.05337430909276,-1.272813081741333,9.418262207031248
1766001237871507000,11.7975068359375,-0.189673513174057,-0.0304668806493282,-1.3288599252700806,9.437042236328125
1766001237890287000,11.816287109375,-0.2142608165740966,-0.0633008629083633,-1.2210423946380615,9.455822509765625
1766001237909067500,11.835067626953125,-0.1252272725105285,-0.1553887277841568,-0.9052252173423768,9.47460302734375
1766001237927847700,11.85384765625,-0.0137444576248526,-0.6071232557296753,-0.6427060961723328,9.493383056640624
1766001237946627800,11.8726279296875,-0.1841757297515869,-1.080085277557373,-0.5403862595558167,9.512163330078124
1766001237965408000,11.891407958984376,-0.3181078433990478,-1.131245255470276,-0.487546443939209,9.530943359375001
1766001237984188200,11.910188232421875,-0.268169641494751,-0.3192532062530517,0.1549305766820907,9.549723632812501
1766001238002968300,11.92896826171875,0.1104138121008873,-0.5249619483947754,0.7486911416053772,9.568503662109375
1766001238021748500,11.94774853515625,0.6966912746429443,0.5371792316436768,0.3354411125183105,9.587283935546875
1766001238040528600,11.966528564453125,0.5406153202056885,0.1914297491312027,0.3873646259307861,9.606063964843749
1766001238059309000,11.98530908203125,-0.1612683087587356,-1.5556435585021973,0.5558105707168579,9.624844482421874
1766001238078089200,12.004089111328126,-0.0175623632967472,-1.4853941202163696,0.8384882807731628,9.643624511718752
1766001238096869400,12.022869384765626,0.7712168097496033,-1.0814597606658936,0.9539417028427124,9.662404785156252
1766001238115649500,12.0416494140625,1.088408350944519,-0.6440805792808533,0.9368374943733216,9.681184814453125
1766001238134429700,12.0604296875,1.0024291276931765,0.169133186340332,1.0234276056289673,9.699965087890625
1766001238153209900,12.0792099609375,0.943175196647644,0.8580359220504761,1.251585602760315,9.718745361328125
1766001238171990300,12.097990234375,0.7539598345756531,1.389641046524048,1.3500875234603882,9.737525634765625
1766001238190770400,12.1167705078125,0.2936732470989227,1.4354559183120728,0.932866871356964,9.756305908203124
1766001238209550600,12.135550537109374,-0.2105956375598907,1.551978349685669,0.2438113987445831,9.775085937499998
1766001238228330800,12.154330810546876,-0.4245510101318359,1.54693865776062,-0.3245982825756073,9.793866210937502
1766001238247111000,12.17311083984375,-0.8045089244842529,0.2899316847324371,-0.8954514265060425,9.812646240234375
1766001238265891300,12.191891357421875,-1.6351323127746582,-0.7743474841117859,-1.2008837461471558,9.831426757812501
1766001238284671500,12.21067138671875,-1.8309144973754885,-0.8274927139282227,-1.346727728843689,9.850206787109375
1766001238303451600,12.22945166015625,-1.5097522735595703,-0.004657844081521,-1.2844195365905762,9.868987060546875
1766001238322231800,12.248231689453124,-1.008843183517456,0.9904409050941468,-0.5851321220397949,9.887767089843749
1766001238341012000,12.267011962890624,-0.0751363709568977,-0.107283130288124,-0.5781071782112122,9.906547363281248
1766001238359792000,12.285792236328126,0.233961209654808,-0.2120464295148849,-1.2989275455474854,9.925327636718752
1766001238378572300,12.304572265625,-0.5296197533607483,-1.7022510766983032,-1.1260528564453125,9.944107666015626
1766001238397352700,12.323352783203124,-0.1383608728647232,-1.4786745309829712,-0.8039743900299072,9.962888183593748
1766001238416132900,12.3421328125,0.472656637430191,-0.9912044405937196,-0.2482401728630066,9.981668212890625
1766001238434913000,12.3609130859375,0.8796452879905701,-0.7210494875907898,0.3969857394695282,10.000448486328125
1766001238453693200,12.379693115234376,1.2238675355911257,0.4709003865718841,1.159345030784607,10.019228515625002
1766001238472473300,12.398473388671874,1.7362303733825684,1.782885193824768,1.6443716287612915,10.038008789062498
1766001238491253500,12.41725341796875,1.987448573112488,2.1064908504486084,1.836641311645508,10.056788818359376
1766001238510034000,12.436033935546876,1.7936517000198364,2.04128098487854,1.8057926893234253,10.075569335937502
1766001238528814000,12.45481396484375,1.6453642845153809,1.5353323221206665,1.6446770429611206,10.094349365234375
1766001238547594200,12.47359423828125,1.9226969480514529,0.908890426158905,1.3893356323242188,10.113129638671875
1766001238566374400,12.49237451171875,2.193462610244751,0.8132901191711426,0.9948696494102478,10.131909912109375
1766001238585154600,12.511154541015625,1.7928881645202637,0.9230930209159852,0.4105774760246277,10.150689941406249
1766001238603934700,12.529934814453124,0.6588176488876343,1.3335942029953003,-0.3446041047573089,10.169470214843749
1766001238622715100,12.548715087890624,-0.9022472500801086,1.666210055351257,-0.9467640519142152,10.188250488281248
1766001238641495300,12.567495361328126,-2.055407285690308,1.3754384517669678,-1.4947097301483154,10.207030761718752
1766001238660275500,12.586275390625,-2.718806505203247,0.1462257504463195,-1.329928994178772,10.225810791015626
1766001238679055600,12.6050556640625,-1.1070396900177002,-1.666362762451172,-0.9266055226325988,10.244591064453125
1766001238697835800,12.623835693359377,0.0882699638605117,-0.062537282705307,-1.6796491146087646,10.263371093750003
1766001238716616000,12.642615966796876,0.3335321843624115,-1.745316982269287,-1.237993836402893,10.282151367187502
1766001238735396000,12.66139599609375,-0.5572614073753357,-2.3441171646118164,-0.6938660144805908,10.300931396484376
1766001238754176500,12.680176513671874,0.1290451884269714,-0.8838449716567993,-0.0220674909651279,10.319711914062498
1766001238772956700,12.698956787109376,0.7866411209106445,-1.2883901596069336,0.3782016634941101,10.338492187500002
1766001238791736800,12.71773681640625,0.5516108870506287,-1.4982222318649292,0.7321978211402893,10.357272216796876
1766001238810517000,12.73651708984375,0.2461785078048706,-1.1239148378372192,1.0770310163497925,10.376052490234375
1766001238829297200,12.755297119140623,0.3814850449562073,-0.5828413367271423,1.1478912830352783,10.39483251953125
1766001238848077600,12.77407763671875,0.7728966474533081,0.1476002037525177,1.0333541631698608,10.413613037109375
1766001238866857700,12.792857666015625,0.6647735834121704,0.7589231133460999,1.0277036428451538,10.432393066406249
1766001238885638000,12.811637939453124,0.2788597643375397,1.2025636434555054,1.2034800052642822,10.451173339843749
1766001238904418000,12.83041796875,0.2942841053009033,1.3222931623458862,1.1384228467941284,10.469953369140626
1766001238923198200,12.8491982421875,0.5297724604606628,1.4336233139038086,0.8242856860160828,10.488733642578126
1766001238941978400,12.867978271484375,0.72173672914505,1.507690668106079,0.308563083410263,10.507513671875
1766001238960758800,12.8867587890625,0.8385646343231201,1.3445897102355957,-0.1349247545003891,10.526294189453125
1766001238979539000,12.9055390625,0.9767727851867676,1.1671335697174072,-0.3614028692245483,10.545074462890625
1766001238998319000,12.924319091796876,0.0708603113889694,0.9608139395713806,-0.3119228184223175,10.563854492187502
1766001239017099300,12.943099365234374,-0.8077159523963928,0.4009563624858856,-1.0258710384368896,10.582634765624999
1766001239035879400,12.96187939453125,-1.7061452865600586,0.6068177819252014,-2.101603984832764,10.601414794921876
1766001239054659600,12.98065966796875,-2.6426010131835938,0.8615484237670898,-2.771569967269897,10.620195068359376
1766001239082830000,13.008830078125,-2.4179553985595703,0.5324450135231018,-1.0796271562576294,10.648365478515625
1766001239101610200,13.0276103515625,-0.954476237297058,0.5003746151924133,-2.4328453540802,10.667145751953125
1766001239129780500,13.055780517578125,-1.7693698406219482,-3.510410785675049,-1.8244240283966064,10.695315917968749
1766001239148560600,13.074560546875,-0.9558506608009338,-3.5876851081848145,-0.8890373110771179,10.714095947265626
1766001239167341000,13.093341064453124,-0.2263254076242447,-3.7532296180725098,-0.1938732117414474,10.732876464843748
1766001239186121200,13.112121337890626,0.5181660652160645,-2.6272530555725098,0.4583776593208313,10.751656738281252
1766001239204901400,13.1309013671875,0.8156571984291077,-1.222569465637207,1.0292308330535889,10.770436767578126
1766001239223681500,13.149681640625,0.8177952170372009,0.1379790753126144,1.4898228645324707,10.789217041015625
1766001239242461700,13.168461669921877,0.7263182401657104,1.120249629020691,2.0177626609802246,10.807997070312503
1766001239261241900,13.187241943359377,0.7426588535308838,2.021733283996582,2.456974506378174,10.826777343750003
1766001239280022300,13.206022216796876,0.7418952584266663,2.772180795669556,2.4337615966796875,10.845557617187502
1766001239298802400,13.224802490234374,0.7195987105369568,2.747746229171753,1.8393901586532595,10.864337890624999
1766001239317582600,13.24358251953125,0.1986837685108184,1.8225914239883425,1.0170135498046875,10.883117919921876
1766001239336362800,13.26236279296875,-0.6429351568222046,0.3026071488857269,0.5570323467254639,10.901898193359376
1766001239355143000,13.281142822265624,-0.7936660647392273,-1.4488948583602903,0.0411570146679878,10.92067822265625
1766001239373923000,13.299923095703123,-0.5623010396957397,-2.2831835746765137,-0.3872119188308716,10.93945849609375
1766001239392703200,13.318703125,-0.943175196647644,-2.5560872554779053,-1.0217477083206177,10.958238525390627
1766001239411483600,13.337483642578125,-1.852294683456421,-2.3807690143585205,-1.5176172256469729,10.977019042968749
1766001239439654000,13.36565380859375,-2.6862778663635254,0.4255436658859253,-2.1173336505889893,11.005189208984376
1766001239458434000,13.38443408203125,-4.255436897277832,2.222555160522461,-2.172616958618164,11.023969482421876
1766001239477214200,13.403214111328126,-4.351342678070068,2.013334035873413,-2.1596360206604004,11.04274951171875
1766001239495994400,13.421994384765624,-4.028194904327393,0.6996692419052124,-1.842902660369873,11.06152978515625
1766001239514774800,13.44077490234375,-2.8687736988067627,-1.9149847030639648,-0.87254399061203,11.080310302734375
1766001239533555000,13.459554931640625,-0.6304124593734741,-1.9301036596298216,-0.5365683436393738,11.099090332031249
1766001239552335000,13.478335205078125,0.6151408553123474,0.2039524763822555,-1.1824051141738892,11.117870605468749
1766001239571115300,13.497115234375,-0.3749182522296905,-3.089219570159912,-0.8604794144630432,11.136650634765626
1766001239589895400,13.5158955078125,-1.036942958831787,-2.310977935791016,0.2596938908100128,11.155430908203126
1766001239608675800,13.53467578125,0.1788306683301925,-1.362152099609375,0.936990201473236,11.174211181640626
1766001239627456000,13.5534560546875,1.9211697578430176,-1.124372959136963,1.8210642337799072,11.192991455078126
1766001239646236200,13.572236083984375,2.66443943977356,-0.7366265654563904,2.649549722671509,11.211771484375
1766001239665016300,13.591016357421877,3.0637922286987305,-0.6992111206054688,3.0282857418060303,11.230551757812503
1766001239683796500,13.60979638671875,3.162905216217041,-0.4568504989147186,3.1043384075164795,11.249331787109377
