time,seconds_elapsed,z,y,x,t
1766001235655444200,9.5814443359375,0.5225948095321655,-0.6914225816726685,0.3487274348735809,7.2209797363281245
1766001235674224400,9.600224365234377,0.205861434340477,-0.8221476078033447,0.8184824585914612,7.239759765625002
1766001235693004500,9.619004638671877,0.2906189262866974,0.036422811448574,1.080085277557373,7.258540039062502
1766001235711784700,9.63778466796875,0.7371610999107361,0.7631992101669312,1.1926370859146118,7.2773200683593755
1766001235730564900,9.65656494140625,0.9352339506149292,1.2176826000213623,1.377271056175232,7.296100341796875
1766001235749345000,9.675344970703126,0.9537126421928406,1.7773873805999756,1.5893938541412354,7.314880371093751
1766001235768125400,9.69412548828125,0.9259182810783386,2.4230716228485107,1.6842305660247805,7.333660888671875
1766001235786905600,9.712905517578124,0.9738711714744568,2.8418192863464355,1.5472440719604492,7.352440917968749
1766001235805685800,9.731685791015623,1.2510510683059692,2.850982189178467,1.3056471347808838,7.371221191406248
1766001235824466000,9.7504658203125,1.6224569082260132,2.427805662155152,0.9592867493629456,7.390001220703126
1766001235843246000,9.76924609375,1.5946625471115112,1.5360958576202393,0.6375137567520142,7.408781494140626
1766001235862026200,9.788026123046874,1.1859939098358154,0.3824777007102966,0.3664425015449524,7.427561523437499
1766001235890196500,9.816196533203126,1.1523964405059814,-0.9371429085731506,-0.0755181610584259,7.455731933593751
1766001235908976600,9.8349765625,0.9129374027252196,-1.2115739583969116,-0.4360810816287994,7.474511962890625
1766001235927757000,9.853757080078124,0.1543960720300674,-1.2703696489334106,-0.8361974954605103,7.493292480468749
1766001235946537200,9.872537109375,-0.7816014885902405,-1.0409899950027466,-1.147433161735535,7.512072509765624
1766001235965317400,9.8913173828125,-1.4278963804244995,-0.6778308153152466,-1.3308452367782593,7.530852783203126
1766001235984097500,9.91009765625,-1.753334641456604,-0.6318632364273071,-1.538081169128418,7.549633056640626
1766001236002877700,9.928877685546874,-2.269209861755371,-1.105283498764038,-1.6746094226837158,7.568413085937499
1766001236021657900,9.947657958984376,-2.140317440032959,-1.5973349809646606,-0.2775616943836212,7.587193359375001
1766001236040438000,9.96643798828125,-0.8034399151802063,-0.7691551446914673,-1.393153429031372,7.605973388671875
1766001236059218200,9.98521826171875,-0.5813905596733093,-2.273409605026245,-1.0176243782043457,7.6247536621093746
1766001236077998300,10.003998291015623,-1.3158026933670044,-3.7022223472595215,-0.3429242074489593,7.643533691406248
1766001236096778800,10.02277880859375,-0.4053087830543518,-2.295248031616211,0.192651480436325,7.662314208984376
1766001236115559000,10.041558837890625,1.1131483316421509,-1.853592872619629,0.5881864428520203,7.68109423828125
1766001236134339000,10.060339111328124,1.214093804359436,-0.7361684441566467,0.9569960236549376,7.6998745117187495
1766001236153119200,10.079119140625,0.9361502528190612,0.4577668011188507,1.2804489135742188,7.718654541015625
1766001236171899400,10.0978994140625,0.7130318880081177,1.0208313465118408,1.312213897705078,7.737434814453125
1766001236190679600,10.116679443359375,0.573602020740509,1.620853304862976,1.2123374938964844,7.7562148437500005
1766001236209459700,10.135459716796875,0.4602866172790527,1.950262188911438,1.1175007820129397,7.7749951171875
1766001236228240000,10.154239990234377,0.3900371491909027,2.107407093048096,0.9670752882957458,7.793775390625002
1766001236247020300,10.173020263671877,0.2900080680847168,1.9908846616744995,0.742429792881012,7.812555664062502
1766001236265800400,10.191800537109376,0.1317940801382064,1.1156681776046753,0.3235292732715606,7.831335937500001
1766001236284580600,10.21058056640625,0.0676532760262489,-0.0888044685125351,0.1779907196760177,7.850115966796875
1766001236303360800,10.22936083984375,0.0087048234418034,-0.9197332859039308,-0.0434477590024471,7.868896240234375
1766001236322141000,10.248140869140624,-0.2689332067966461,-0.9478330612182616,-0.4328740537166595,7.887676269531249
1766001236340921000,10.266921142578123,-0.5955931544303894,-0.9317978620529176,-0.9189696907997132,7.906456542968749
1766001236359701200,10.285701171875,-1.250898361206055,-0.7479275465011597,-1.2674680948257446,7.925236572265626
1766001236378481400,10.3044814453125,-2.224769592285156,-0.4495201110839844,-1.4249184131622314,7.944016845703126
1766001236397261600,10.323261474609374,-2.5972442626953125,-0.6054433584213257,-1.454087257385254,7.9627968749999996
1766001236416042000,10.3420419921875,-2.3959643840789795,-1.004948973655701,-0.9229403138160706,7.981577392578125
1766001236434822100,10.360822265625,-1.0488548278808594,-1.5707623958587646,0.2030361741781234,8.000357666015624
1766001236453602300,10.379602294921876,0.1014035567641258,-0.327041745185852,-0.6595048904418945,8.019137695312502
1766001236472382500,10.398382568359375,-0.2322813272476196,-0.9266055226325988,-0.3511708974838257,8.037917968750001
1766001236491162600,10.41716259765625,-0.937219262123108,-1.6591850519180298,0.0251218136399984,8.056697998046875
1766001236509942800,10.43594287109375,-0.3110828995704651,-0.7124974131584167,0.1821140646934509,8.075478271484375
1766001236528723000,10.454722900390625,0.7180715203285217,-0.5733729600906372,0.1731038093566894,8.094258300781249
1766001236547503400,10.47350341796875,1.1233803033828735,-0.07796161621809,0.3684278130531311,8.113038818359374
1766001236575673600,10.501673583984376,1.1578941345214844,1.230816125869751,0.7677806615829468,8.141208984375002
1766001236594453800,10.520453857421876,0.7469348907470703,1.7247003316879272,0.7647263407707214,8.159989257812502
1766001236613234000,10.53923388671875,0.210901066660881,1.8758894205093384,0.576274573802948,8.178769287109375
1766001236632014000,10.55801416015625,-0.1727220118045807,1.76333749294281,0.1341611742973327,8.197549560546875
1766001236650794200,10.576794189453125,-0.5965094566345215,1.2053126096725464,-0.4791470468044281,8.216329589843749
1766001236669574400,10.595574462890625,-1.0641264915466309,0.1289688199758529,-1.0454187393188477,8.235109863281249
1766001236688354800,10.614354736328124,-1.2939642667770386,-0.1530979871749878,-1.4991384744644165,8.253890136718748
1766001236707135000,10.633135009765626,-1.266017198562622,0.5316814184188843,-1.485088586807251,8.272670410156252
1766001236725915100,10.6519150390625,-1.3127484321594238,0.5645154118537903,-1.0664935111999512,8.291450439453126
1766001236744695300,10.6706953125,-1.5990912914276123,0.3876700699329376,-0.960661232471466,8.310230712890625
1766001236763475500,10.689475341796877,-1.5506802797317505,0.3215439617633819,-1.1662172079086304,8.329010742187503
1766001236782255600,10.708255615234377,-1.3225222826004028,-0.6743183732032776,-1.1298707723617554,8.347791015625003
1766001236801035800,10.727035888671876,-1.2634210586547852,-0.8111520409584045,-0.2964984774589538,8.366571289062502
1766001236819816000,10.74581591796875,-0.595745861530304,-0.1637881249189376,-0.528932511806488,8.385351318359376
1766001236838596000,10.76459619140625,0.416762501001358,-0.6999746561050415,-0.8329904675483704,8.404131591796876
1766001236857376500,10.78337646484375,-0.3765981495380401,-2.4789655208587646,-0.4043161273002624,8.422911865234376
1766001236876156700,10.80215673828125,-0.5476402640342712,-1.6993494033813477,0.1549305766820907,8.441692138671876
1766001236894936800,10.820936767578123,0.6601921319961548,-0.5103011727333069,0.7332668304443359,8.46047216796875
1766001236913717000,10.839717041015623,1.561981201171875,-0.2560287117958069,1.2251657247543335,8.47925244140625
1766001236932497200,10.8584970703125,1.7310380935668943,0.3603338599205017,1.559003233909607,8.498032470703127
1766001236951277300,10.87727734375,1.655748963356018,1.4511855840682983,1.8558835983276367,8.516812744140626
1766001236970057500,10.896057373046874,1.366351842880249,2.0144028663635254,1.9368231296539309,8.5355927734375
1766001236988838000,10.914837890625,1.0219768285751345,2.0082943439483643,1.786703109741211,8.554373291015626
1766001237007618000,10.9336181640625,0.6899717450141907,1.5716787576675415,1.5559489727020264,8.573153564453126
1766001237026398200,10.952398193359375,0.4822777509689331,0.8131373524665833,1.0721440315246582,8.59193359375
1766001237045178400,10.971178466796877,0.0974329337477684,0.3951531648635864,0.6463713049888611,8.610713867187503
1766001237063958500,10.98995849609375,-0.0253508891910314,-0.6449968218803406,0.5015963315963745,8.629493896484377
1766001237082738700,11.00873876953125,0.1870773434638977,-1.422474980354309,0.3927097022533417,8.648274169921876
1766001237101518800,11.027518798828124,0.1769980639219284,-1.117958903312683,0.3797288239002228,8.66705419921875
1766001237120299000,11.046299072265626,0.2052505612373352,-1.1871393918991089,0.2500727772712707,8.68583447265625
1766001237139079400,11.065079345703126,-0.0923933014273643,-1.0770310163497925,-0.1747836917638778,8.70461474609375
1766001237157859600,11.083859619140624,-0.8124501705169678,-0.8212313652038574,-0.8128319382667542,8.72339501953125
1766001237186029800,11.11202978515625,-2.1470370292663574,-1.112002968788147,-1.3200024366378784,8.751565185546877
1766001237214200000,11.140199951171876,-1.441946268081665,-0.0041996953077614,-0.3336085379123688,8.7797353515625
1766001237232980200,11.158980224609374,-0.3109301626682281,0.4895317554473877,-0.7465531229972839,8.798515625
1766001237251760400,11.177760498046876,-0.6236929297447205,-1.1489602327346802,-0.6929497122764587,8.8172958984375
1766001237270540800,11.196540771484376,-1.0123556852340698,-2.468886375427246,-0.2404516488313675,8.836076171875
1766001237289321000,11.215321044921875,0.6023126840591431,-0.6341540217399597,0.3826304376125335,8.8548564453125
1766001237308101000,11.23410107421875,1.980729103088379,-0.5000692009925842,0.8578832149505615,8.873636474609373
1766001237326881300,11.25288134765625,1.725234866142273,-1.0539708137512207,1.1831687688827517,8.892416748046877
1766001237345661400,11.271661376953125,1.1711804866790771,-0.4024835228919983,1.5767183303833008,8.91119677734375
1766001237364441600,11.290441650390624,1.2174534797668457,0.2920697331428528,1.7648646831512451,8.92997705078125
1766001237383221800,11.3092216796875,1.393382549285889,0.5732202529907227,1.816024661064148,8.948757080078124
1766001237402002000,11.328001953125,1.1264346837997437,0.8752928972244263,1.8273255825042725,8.967537353515624
1766001237420782300,11.3467822265625,0.5920807123184204,0.0330630578100681,1.3670389652252195,8.986317626953124
1766001237439562500,11.3655625,-0.1226311028003692,-0.9800561666488647,0.7616720199584961,9.005097900390624
1766001237458342700,11.3843427734375,-0.7278453707695007,-1.3792563676834106,0.2007454335689544,9.023878173828123
1766001237477122800,11.403122802734377,-1.281441569328308,-1.159650444984436,-0.1793651729822158,9.042658203125
1766001237495903000,11.421903076171876,-1.555261731147766,-1.144531488418579,-0.5284743905067444,9.0614384765625
1766001237514683100,11.44068310546875,-1.7143919467926023,-1.462944746017456,-0.9539417028427124,9.080218505859374
1766001237533463600,11.459463623046876,-2.2281293869018555,-1.5501457452774048,-1.3468804359436035,9.0989990234375
1766001237552243700,11.47824365234375,-2.462854146957397,-0.5959749221801758,-0.7002801299095154,9.117779052734374
1766001237571024000,11.49702392578125,-1.2722786664962769,-1.2324960231781006,-0.4701367914676666,9.136559326171874
1766001237589804000,11.515803955078123,-0.5384773015975952,-0.3696495592594147,-1.0860412120819092,9.155339355468747
1766001237608584200,11.534584228515625,-1.687361240386963,-2.550284147262573,-0.8386409878730774,9.17411962890625
1766001237627364400,11.5533642578125,-1.0593922138214111,-3.2992043495178223,-0.3925569653511047,9.192899658203125
1766001237646144500,11.57214453125,0.2441931962966919,-1.4163663387298584,0.1935677826404571,9.211679931640624
1766001237664925000,11.590925048828124,1.085659384727478,-0.8313106298446655,0.7641154527664185,9.23046044921875
