time,seconds_elapsed,z,y,x,t
1766001230420468000,4.346468017578125,-0.5377602577209473,2.7095842361450195,0.1382763385772705,2.018868896484375
1766001230439248100,4.365248046875,0.670107364654541,3.256468772888184,-1.6471600532531738,2.03764892578125
1766001230458028300,4.3840283203125,1.970075845718384,3.835148811340332,-3.2890830039978027,2.0564291992187496
1766001230476808700,4.40280859375,2.605679035186768,3.7887582778930655,-2.4446334838867188,2.0752094726562493
1766001230495588900,4.4215888671875,2.10601544380188,2.35067081451416,-0.8043613433837891,2.09398974609375
1766001230514369000,4.440369140625,0.7183890342712402,1.599100112915039,0.1184720993041992,2.1127700195312498
1766001230533149200,4.459149169921875,-2.055159330368042,1.267473220825195,1.6320364475250244,2.1315500488281245
1766001230551929300,4.477929443359375,-3.802903175354004,-0.2608194351196289,2.474430561065674,2.1503303222656243
1766001230570709500,4.49670947265625,-3.384901523590088,-1.567056655883789,2.236431121826172,2.1691103515625
1766001230589489700,4.51548974609375,-3.335854768753052,-2.4780168533325195,3.0901412963867188,2.1878906249999996
1766001230608269800,4.534269775390625,-3.499666690826416,-3.151857376098633,4.600599765777588,2.2066706542968744
1766001230627050000,4.553050048828125,-4.0416579246521,-4.208683013916016,6.200679779052734,2.225450927734375
1766001230645830100,4.571830078125,-3.1692612171173096,-6.36473560333252,7.1786274909973145,2.2442309570312498
1766001230664610300,4.5906103515625,-2.7361550331115723,-7.262774467468262,5.832788467407227,2.2630112304687495
1766001230683390500,4.609390380859375,-1.144028663635254,-7.267752170562744,4.551513195037842,2.2817912597656242
1766001230702170600,4.628170654296875,-1.6202147006988523,-6.109529495239258,4.111722946166992,2.300571533203125
1766001230720950800,4.64695068359375,-1.3739420175552368,-2.8583297729492188,1.8463298082351685,2.3193515624999996
1766001230739731000,4.66573095703125,-0.3992432355880737,1.970808029174805,-1.0428013801574707,2.3381318359374994
1766001230758511400,4.684511474609375,0.808172345161438,5.211014747619629,-2.334172487258911,2.3569123535156242
1766001230777291500,4.70329150390625,1.34036123752594,3.5386648178100586,-3.5406410694122314,2.3756923828125
1766001230805461800,4.731461669921875,2.232595443725586,2.73583984375,-5.97682523727417,2.4038625488281244
1766001230824242000,4.750241943359375,0.8973768949508667,6.096822738647461,-5.313178539276123,2.422642822265625
1766001230852412200,4.778412109375,0.2705926299095154,4.545759201049805,-1.8521087169647217,2.4508129882812497
1766001230871192300,4.7971923828125,-1.0760061740875244,2.571957588195801,0.2336325943470001,2.4695932617187495
1766001230889972500,4.815972412109375,1.0878499746322632,2.4389686584472656,-0.162609726190567,2.488373291015625
1766001230908752600,4.834752685546875,2.3582589626312256,2.895912170410156,-0.1415558755397796,2.507153564453125
1766001230927532800,4.85353271484375,-3.2858145236968994,5.555994987487793,-3.04465651512146,2.5259335937499996
1766001230946313000,4.87231298828125,0.8108001351356506,6.554525375366211,-6.347710609436035,2.5447138671874994
1766001230965093000,4.891093017578125,2.6827080249786377,1.3643417358398438,-5.670480728149414,2.563493896484375
1766001230983873300,4.909873291015625,1.7500240802764893,-2.295662403106689,-5.100656032562256,2.5822741699218748
1766001231012043500,4.93804345703125,-0.3213046193122864,-2.4022321701049805,-5.807606220245361,2.6104443359374994
1766001231030824000,4.956823974609375,-0.5884971618652344,-3.066837310791016,-1.7252832651138306,2.629224853515625
1766001231049604000,4.97560400390625,-1.159550428390503,-3.575869083404541,1.3748704195022583,2.6480048828125
1766001231068384300,4.99438427734375,-2.2487130165100098,-3.04556655883789,1.7350558042526243,2.6667851562499996
1766001231087164400,5.013164306640625,-2.39258360862732,-2.1528773307800293,1.414975643157959,2.6855651855468743
1766001231105944600,5.031944580078125,-1.5256829261779783,-2.169006824493408,1.4098100662231443,2.704345458984375
1766001231124724700,5.050724853515625,-1.4367674589157104,-1.9099831581115725,1.0397934913635254,2.7231257324218747
1766001231143505000,5.0695048828125,-1.183983325958252,-1.5077581405639648,0.2681477665901184,2.7419057617187494
1766001231171675100,5.097675048828125,-0.7663090229034424,-0.6560869216918945,-0.200763463973999,2.770075927734375
1766001231190455300,5.116455322265625,-0.0353412628173828,0.1532230377197265,0.3797731399536133,2.7888562011718747
1766001231209235500,5.1352353515625,-0.0380806922912597,0.7486629486083984,1.282537817955017,2.8076362304687494
1766001231228015600,5.154015625,0.1771630048751831,0.4946107864379883,1.925911545753479,2.82641650390625
1766001231246795800,5.172795654296875,0.2320224046707153,-0.3480329513549804,2.337560176849365,2.845196533203125
1766001231265576000,5.191575927734375,-0.1518142223358154,-0.630396842956543,2.495355129241944,2.8639768066406246
1766001231284356000,5.210356201171875,0.4174761772155761,-0.1975078582763672,2.429574966430664,2.8827570800781244
1766001231303136300,5.22913623046875,2.0933334827423096,1.0225305557250977,1.696800947189331,2.901537109375
1766001231321916400,5.24791650390625,2.634559154510498,1.9533205032348635,0.160189688205719,2.9203173828124998
1766001231340696800,5.26669677734375,3.3235154151916504,2.409095764160156,-1.3645446300506592,2.9390976562499995
1766001231359477000,5.28547705078125,2.6908392906188965,2.585272789001465,-1.9097554683685305,2.9578779296874993
1766001231378257200,5.304257080078125,2.1845011711120605,2.3671112060546875,-1.865159034729004,2.976657958984375
1766001231397037300,5.323037353515625,0.5768305659294128,2.678433418273926,-1.560182809829712,2.9954382324218747
1766001231415817500,5.3418173828125,-0.0537112951278686,2.106239318847656,-2.1555657386779785,3.0142182617187494
1766001231443987700,5.36998779296875,0.9595397710800172,-0.6565780639648438,-1.7662239074707031,3.042388671875
1766001231462767900,5.388767822265625,1.4323654174804688,-0.6738557815551758,-0.7425934076309204,3.0611687011718747
1766001231500328200,5.426328125,0.6016440987586975,0.4382839202880859,0.7775630950927734,3.09872900390625
1766001231519108400,5.4451083984375,0.4487549066543579,0.114995002746582,1.815786361694336,3.11750927734375
1766001231537888500,5.463888427734375,0.5695452690124512,-0.0560321807861328,2.0694379806518555,3.1362893066406246
1766001231556668700,5.482668701171875,1.2529302835464478,-0.0252571105957031,1.6145644187927246,3.1550695800781243
1766001231575448800,5.50144873046875,0.9877709150314332,0.0217361450195312,1.3124114274978638,3.173849609375
1766001231594229200,5.520229248046875,0.6014577746391296,-0.1820812225341797,1.2194643020629885,3.1926301269531248
1766001231613009400,5.539009521484375,0.2497209310531616,-0.3101444244384765,0.953489065170288,3.2114104003906245
1766001231631789600,5.55778955078125,0.0256069898605346,-0.2655658721923828,0.1774132251739502,3.2301904296874993
1766001231650569700,5.57656982421875,0.0495399236679077,-0.0897150039672851,-0.3320715427398681,3.248970703125
1766001231669350000,5.595349853515625,0.6300338506698608,0.1900749206542968,-0.5360355377197266,3.2677507324218746
1766001231697520000,5.62352001953125,1.9676239490509035,0.4126443862915039,-0.6007918119430542,3.2959208984374992
1766001231716300300,5.64230029296875,2.842616558074951,0.3202934265136719,-0.6540968418121338,3.314701171875
1766001231735080400,5.66108056640625,3.641362428665161,0.6412286758422852,-0.9545495510101318,3.3334814453124997
1766001231753860600,5.679860595703125,3.878666639328003,1.0973711013793943,-1.156375765800476,3.3522614746093744
1766001231772640800,5.698640869140625,4.0094404220581055,1.855942726135254,-1.5198521614074707,3.371041748046875
1766001231791421000,5.7174208984375,4.327136039733887,3.877224922180176,-1.611457586288452,3.38982177734375
1766001231810201000,5.736201171875,6.0338006019592285,7.817806243896484,-1.7565678358078003,3.4086020507812496
1766001231828981200,5.754981201171875,5.617783546447754,8.251614570617676,0.6555155515670776,3.4273820800781243
1766001231847761700,5.77376171875,2.14546799659729,3.906938552856445,3.235372304916382,3.44616259765625
1766001231866541800,5.792541748046875,-3.138298273086548,1.0396442413330078,2.718777894973755,3.4649426269531247
1766001231885322000,5.811322021484375,-6.131921291351318,1.1478681564331057,1.233792066574097,3.4837229003906245
1766001231904102100,5.83010205078125,-2.200209379196167,2.020343780517578,2.902029514312744,3.5025029296875
1766001231922882300,5.84888232421875,-0.3490893840789795,1.1944046020507812,4.985699653625488,3.521283203125
1766001231941662500,5.867662353515625,-1.398633599281311,-0.3713436126708984,4.092643737792969,3.5400632324218746
1766001231960442600,5.886442626953125,-1.742682933807373,-1.0131683349609375,1.96232271194458,3.5588435058593744
1766001231979222800,5.905222900390625,-1.831196427345276,-0.8700141906738281,0.4881587624549866,3.577623779296875
1766001231998003000,5.9240029296875,-2.0721275806427,-0.9990463256835938,-0.3531627655029297,3.5964038085937498
1766001232026173200,5.952173095703125,-2.6352243423461914,-1.7716970443725586,-0.6002824306488037,3.6245739746093744
1766001232044953300,5.970953369140625,-2.3497674465179443,-2.12137222290039,0.1692574024200439,3.643354248046875
1766001232063733500,5.9897333984375,-1.8562233448028564,-2.367137908935547,1.2229509353637695,3.6621342773437497
1766001232082514000,6.008513916015625,-1.7971771955490112,-2.281100273132324,1.2369229793548584,3.6809147949218746
1766001232101294000,6.027294189453125,-1.7374531030654907,-2.462858200073242,0.1850795745849609,3.6996950683593743
1766001232129464300,6.05546435546875,-3.1036131381988525,-3.103419303894043,0.0633869171142578,3.727865234375
1766001232148244500,6.074244384765625,-2.866038084030152,-3.3472814559936523,0.3031632900238037,3.7466452636718746
1766001232167024600,6.093024658203125,-2.905127763748169,-3.582980155944824,0.8368880748748779,3.7654255371093743
1766001232185804800,6.1118046875,-2.4837632179260254,-2.616302490234375,0.566063642501831,3.78420556640625
1766001232204585000,6.1305849609375,-1.49561607837677,-1.0364127159118652,0.844475269317627,3.8029858398437497
1766001232223365000,6.149365234375,-1.307956576347351,0.9611587524414062,2.4152657985687256,3.8217661132812495
1766001232242145300,6.168145263671875,-2.149301767349243,0.4531116485595703,5.771413803100586,3.840546142578125
1766001232260925400,6.186925537109375,-2.5039706230163574,-0.5750675201416016,6.211108207702637,3.859326416015625
1766001232279705600,6.20570556640625,-2.0833628177642822,-0.7047882080078125,3.278449058532715,3.8781064453124996
1766001232298485800,6.22448583984375,-3.4235646724700928,0.0452842712402343,1.120502471923828,3.8968867187499994
1766001232317266200,6.24326611328125,-2.8773398399353027,0.2447834014892578,0.0633481740951538,3.9156669921875
1766001232336046300,6.26204638671875,-2.119667053222656,-0.9178781509399414,0.15609872341156,3.934447265625
1766001232364216600,6.290216552734375,-3.139387369155884,-3.5789999961853027,1.2318403720855713,3.9626174316406244
1766001232382996700,6.308996826171875,-2.833420515060425,-4.516592502593994,2.1850428581237797,3.981397705078125
1766001232401777000,6.32777685546875,-2.796960830688477,-4.653171539306641,3.1786258220672607,4.000177734375
1766001232420557000,6.34655712890625,-2.6799328327178955,-4.212924480438232,2.964927196502685,4.0189580078125
1766001232448727300,6.374727294921875,-0.6267688274383545,-3.591324806213379,0.759830117225647,4.047128173828125
1766001232467507500,6.393507568359375,-1.005084991455078,-2.714329719543457,-0.2420896291732788,4.065908447265625
1766001232486287600,6.41228759765625,-0.8567507266998291,-0.0848798751831054,-0.7044281959533691,4.0846884765625
1766001232505067800,6.43106787109375,-0.0634949207305908,2.838094711303711,-0.5907313823699951,4.103468749999999
