time,seconds_elapsed,z,y,x,t
1766001230481503700,4.407503662109375,0.6385064125061035,0.302912563085556,0.3959167301654815,2.0470390624999997
1766001230500284000,4.426283935546875,1.2052361965179443,0.5358047485351562,0.9495129585266112,2.0658193359375003
1766001230519064000,4.44506396484375,1.7880011796951294,0.7511346340179443,1.458057880401611,2.084599365234375
1766001230537844200,4.46384423828125,2.2038474082946777,0.7108175158500671,1.8955897092819212,2.103379638671875
1766001230556624400,4.482624267578125,2.42910385131836,0.3873646259307861,2.219348192214966,2.1221596679687504
1766001230575404500,4.501404541015625,2.724609613418579,0.2004400044679641,2.552269458770752,2.14093994140625
1766001230594184700,4.520184814453125,3.067457437515259,0.1848629564046859,2.739346742630005,2.15972021484375
1766001230612964900,4.53896484375,3.2812602519989014,-0.0200821794569492,2.706360101699829,2.1785002441406247
1766001230631745000,4.5577451171875,3.22842025756836,-0.3131445646286011,2.547993421554565,2.1972805175781254
1766001230650525200,4.576525146484375,2.7756168842315674,-0.26137375831604,2.3199880123138428,2.216060546875
1766001230669305300,4.595305419921875,2.204000234603882,0.2166279256343841,1.893909931182861,2.2348408203125
1766001230688085500,4.61408544921875,1.5428917407989502,0.6766090989112854,1.6181044578552246,2.2536208496093755
1766001230706865700,4.63286572265625,0.9480621218681335,0.8810960650444031,1.2352449893951416,2.2724011230468752
1766001230725645800,4.651645751953125,0.6612611413002014,1.2260819673538208,0.737084686756134,2.29118115234375
1766001230744426000,4.670426025390625,0.5648971796035767,1.6144392490386963,0.2905425727367401,2.3099614257812497
1766001230763206400,4.689206298828125,0.0496327616274356,1.7404301166534424,-0.0843756943941116,2.3287416992187504
1766001230781986600,4.707986572265625,-0.7554870247840881,1.3323724269866943,-0.4876991808414459,2.34752197265625
1766001230810156800,4.73615673828125,-0.7993165850639343,-0.2731329202651977,-0.8461240530014038,2.375692138671875
1766001230828937000,4.75493701171875,-0.8025236129760742,-0.6005564332008362,-1.080390691757202,2.3944724121093754
1766001230857107200,4.783107177734375,-1.2594504356384275,-0.8423061966896057,-1.3516147136688232,2.422642578125
1766001230875887400,4.801887451171875,-1.332601547241211,-0.7819832563400269,-1.6633083820343018,2.4414228515625
1766001230894667500,4.82066748046875,-1.4512619972229004,-0.2577085793018341,-1.5234204530715942,2.4602028808593754
1766001230913447700,4.83944775390625,-1.1305580139160156,-0.0463493652641773,-0.9124029278755188,2.478983154296875
1766001230932227800,4.858227783203125,-0.7591522336006165,0.3250564336776733,-0.8911753296852112,2.49776318359375
1766001230951008000,4.877008056640625,-0.8914044499397278,0.1224020272493362,-0.7975603342056274,2.5165434570312497
1766001230969788200,4.8957880859375,-0.3028362095355987,-1.4557671546936035,-0.5692496299743652,2.5353234863281253
1766001230988568300,4.914568359375,0.0200058221817016,-1.9901211261749268,0.0260381121188402,2.554103759765625
1766001231007348500,4.933348388671875,0.7263182401657104,-1.8435134887695312,0.6086503863334656,2.5728837890625
1766001231026128600,4.952128662109375,1.282357931137085,-1.4539345502853394,1.145753264427185,2.5916640625000005
1766001231054299100,4.980299072265625,1.4062107801437378,-0.8004619479179382,1.820606112480164,2.61983447265625
1766001231073079300,4.999079345703125,1.3582578897476196,-0.2951240539550781,1.9728641510009768,2.63861474609375
1766001231091859500,5.017859375,1.277470946311951,-0.0423787422478199,1.915595531463623,2.6573947753906246
1766001231120029700,5.04602978515625,1.012661099433899,-0.2790888547897339,1.6753729581832886,2.685565185546875
1766001231138809900,5.064809814453125,0.8364266157150269,-0.546953022480011,1.4320961236953735,2.70434521484375
1766001231157590000,5.083590087890625,0.6892082095146179,-0.7056251764297485,1.1657590866088867,2.7231254882812497
1766001231176370200,5.1023701171875,0.544891357421875,-0.8265764117240906,0.8788053393363953,2.7419055175781253
1766001231195150300,5.121150390625,0.3894262909889221,-0.9075160026550292,0.6292670965194702,2.760685791015625
1766001231213930500,5.139930419921875,0.2157879769802093,-0.8650608658790588,0.4457022249698639,2.7794658203125
1766001231232710700,5.158710693359375,0.0433713980019092,-0.5778017044067383,0.3142135739326477,2.7982460937500004
1766001231251490800,5.17749072265625,-0.1513417512178421,-0.2109774202108383,0.1856265366077423,2.817026123046875
1766001231270271000,5.19627099609375,-0.3665188550949096,0.1532506942749023,0.0121409371495246,2.835806396484375
1766001231289051100,5.215051025390625,-0.5290089249610901,0.5614610910415649,-0.1834885030984878,2.8545864257812497
1766001231307831300,5.233831298828125,-0.5094612240791321,0.7887027859687805,-0.3458258211612701,2.8733666992187503
1766001231326611500,5.252611572265625,-0.2918406426906585,0.5500074028968811,-0.3751473426818847,2.89214697265625
1766001231345391900,5.271391845703125,0.0523816533386707,-0.1187368407845497,-0.5125918984413147,2.91092724609375
1766001231364172000,5.290172119140625,0.116980604827404,-0.7508291602134705,-0.7204386591911316,2.9297075195312496
1766001231382952200,5.3089521484375,0.1178968995809555,-0.8273400068283081,-0.6559923887252808,2.9484875488281252
1766001231401732400,5.327732421875,0.0661261156201362,-0.2205985486507415,-0.3200167715549469,2.967267822265625
1766001231420512500,5.346512451171875,0.0242818742990493,0.2575558722019195,-0.0953712612390518,2.9860478515624997
1766001231439292700,5.365292724609375,0.2099847644567489,0.1914297491312027,-0.0504727028310298,3.0048281250000004
1766001231458072800,5.38407275390625,0.3497200906276703,-0.2503781914710998,-0.1237764731049537,3.023608154296875
1766001231476853000,5.40285302734375,0.3828594982624054,-0.76991868019104,-0.2021198868751526,3.042388427734375
1766001231505023200,5.431023193359375,0.2935205399990082,-0.8829286694526672,-0.2222784161567688,3.0705585937500004
1766001231523803400,5.449803466796875,0.1965457499027252,-0.5750528573989868,-0.1421024203300476,3.0893388671875
1766001231542583600,5.46858349609375,0.1640172004699707,-0.3120755553245544,-0.0884990319609642,3.108118896484375
1766001231561363700,5.48736376953125,0.0772743970155716,-0.1463784724473953,-0.0668133348226547,3.1268991699218747
1766001231580143900,5.506143798828125,-0.0177150778472423,-0.0888044685125351,-0.0640644431114196,3.1456791992187503
1766001231608314400,5.534314453125,-0.0203112531453371,0.0101556265726685,-0.0200821794569492,3.173849853515625
1766001231627094500,5.553094482421875,-0.0662788301706314,0.1514181047677993,0.0312304627150297,3.1926298828124997
1766001231645874700,5.571874755859375,-0.1009454056620597,0.2957349121570587,0.0924696549773216,3.2114101562500004
1766001231664654800,5.59065478515625,-0.075441800057888,0.350101888179779,0.1454621702432632,3.230190185546875
1766001231683435000,5.60943505859375,-0.0236710105091333,0.3223075270652771,0.2051742076873779,3.248970458984375
1766001231702215200,5.628215087890625,0.0154243353754282,0.3044397234916687,0.2995528280735016,3.2677504882812505
1766001231720995300,5.646995361328125,0.0653625279664993,0.3183369040489197,0.4305832982063293,3.2865307617187502
1766001231739775500,5.665775390625,0.1310304999351501,0.418366014957428,0.5843685269355774,3.305310791015625
1766001231758555600,5.6845556640625,0.1884517818689346,0.483881264925003,0.7317396402359009,3.3240910644531247
1766001231777335800,5.703335693359375,0.3303251266479492,0.4137845337390899,0.8487202525138855,3.3428710937500004
1766001231796116000,5.722115966796875,0.5403099060058594,0.0943022519350051,0.8702532649040222,3.3616513671875
1766001231814896400,5.740896484375,0.6980656981468201,-0.0658970400691032,0.8879683017730713,3.380431884765625
1766001231833676500,5.759676513671875,0.472198486328125,0.3678169548511505,1.0594686269760132,3.3992119140624997
1766001231852456700,5.778456787109375,0.1235474050045013,0.6862302422523499,1.0373247861862185,3.4179921875000003
1766001231871236900,5.79723681640625,0.0789542719721794,0.3262781500816345,0.5266417860984802,3.436772216796875
1766001231890017000,5.81601708984375,0.0855210721492767,0.4658607542514801,-0.3191004991531372,3.455552490234375
1766001231908797200,5.834797119140625,-0.4838049113750458,1.6113849878311155,-0.8416953086853027,3.4743325195312504
1766001231927577300,5.853577392578125,-1.226769208908081,2.1355068683624268,-1.148349404335022,3.49311279296875
1766001231946357500,5.872357421875,-1.6325361728668213,2.3477823734283447,-1.5078433752059937,3.511892822265625
1766001231965137700,5.8911376953125,-1.921017050743103,2.346255302429199,-1.787924885749817,3.5306730957031247
1766001231983917800,5.909917724609375,-2.279900074005127,1.7579925060272217,-2.0457098484039307,3.5494531250000003
1766001232002698000,5.928697998046875,-2.6251914501190186,1.116126298904419,-2.2549309730529785,3.5682333984375
1766001232021478100,5.94747802734375,-2.685514211654663,0.9553161859512328,-2.339688539505005,3.587013427734375
1766001232040258300,5.96625830078125,-2.4608688354492188,1.2941933870315552,-2.298760414123535,3.6057937011718755
1766001232059038500,5.98503857421875,-2.216064691543579,1.5887829065322876,-2.124358654022217,3.6245739746093752
1766001232087209000,6.013208984375,-2.1328344345092773,1.3265691995620728,-1.8332815170288088,3.652744384765625
1766001232105989000,6.031989013671875,-2.0740387439727783,0.8975894451141357,-1.6623921394348145,3.6715244140624996
1766001232134159400,6.060159423828125,-1.796858787536621,0.3841575980186462,-1.4928771257400513,3.69969482421875
1766001232152939500,6.078939453125,-1.531590700149536,0.0794887766242027,-1.296484112739563,3.718474853515625
1766001232171719700,6.0977197265625,-1.2709041833877563,-0.2202931046485901,-1.05091655254364,3.7372551269531247
1766001232190499800,6.116499755859375,-0.8100066781044006,-0.2745073735713959,-0.6769145131111145,3.7560351562500003
1766001232209280000,6.135280029296875,-0.0838411897420883,-0.3169624507427215,-0.1265253722667694,3.7748154296875
1766001232228060200,6.15406005859375,0.7405208349227905,-0.2071595191955566,0.4588358104228973,3.793595458984375
1766001232246840300,6.17284033203125,0.9839504361152648,0.3100902438163757,0.9711986184120178,3.8123757324218754
1766001232265620500,6.191620361328125,1.0835213661193848,0.6237692832946777,1.3972768783569336,3.83115576171875
1766001232284400600,6.210400634765625,1.5306744575500488,0.8164971470832825,1.8270201683044436,3.84993603515625
1766001232312571000,6.23857080078125,2.3235769271850586,0.6885209679603577,2.1994950771331787,3.8781062011718754
1766001232331351000,6.25735107421875,2.7055201530456543,0.2428951114416122,2.326707601547241,3.896886474609375
1766001232350131500,6.27613134765625,2.9153521060943604,-0.5031235218048096,2.421238899230957,3.915666748046875
1766001232368911600,6.29491162109375,2.964832305908203,-0.8090140223503113,2.4676647186279297,3.9344470214843748
1766001232387691800,6.31369189453125,2.845408201217652,-0.5257254838943481,2.4832417964935303,3.9532272949218754
1766001232406472000,6.332471923828125,2.5531094074249268,-0.1756999790668487,2.365192174911499,3.97200732421875
1766001232425252000,6.351252197265625,2.084117889404297,0.3158934414386749,1.9913427829742432,3.99078759765625
1766001232444032300,6.3700322265625,1.4417935609817505,0.727921724319458,1.6685007810592651,4.009567626953125
1766001232462812400,6.3888125,0.919198751449585,0.6094139814376831,1.3061052560806274,4.028347900390625
1766001232481592600,6.407592529296875,0.5288561582565308,0.4362338185310364,0.8140536546707153,4.0471279296875
1766001232500372700,6.426372802734375,-0.0025961752980947,0.4822013974189758,0.312686413526535,4.065908203125
1766001232519153000,6.44515283203125,-0.5584831237792969,0.2716057598590851,0.1848629564046859,4.084688232421875
1766001232537933000,6.46393310546875,-0.6446150541305542,0.2447277009487152,-0.3328449428081512,4.103468505859375
