time,seconds_elapsed,z,y,x,t
1766001231523803400,5.449803466796875,0.1965457499027252,-0.5750528573989868,-0.1421024203300476,3.0893388671875
1766001231542583600,5.46858349609375,0.1640172004699707,-0.3120755553245544,-0.0884990319609642,3.108118896484375
1766001231561363700,5.48736376953125,0.0772743970155716,-0.1463784724473953,-0.0668133348226547,3.1268991699218747
1766001231580143900,5.506143798828125,-0.0177150778472423,-0.0888044685125351,-0.0640644431114196,3.1456791992187503
1766001231608314400,5.534314453125,-0.0203112531453371,0.0101556265726685,-0.0200821794569492,3.173849853515625
1766001231627094500,5.553094482421875,-0.0662788301706314,0.1514181047677993,0.0312304627150297,3.1926298828124997
1766001231645874700,5.571874755859375,-0.1009454056620597,0.2957349121570587,0.0924696549773216,3.2114101562500004
1766001231664654800,5.59065478515625,-0.075441800057888,0.350101888179779,0.1454621702432632,3.230190185546875
1766001231683435000,5.60943505859375,-0.0236710105091333,0.3223075270652771,0.2051742076873779,3.248970458984375
1766001231702215200,5.628215087890625,0.0154243353754282,0.3044397234916687,0.2995528280735016,3.2677504882812505
1766001231720995300,5.646995361328125,0.0653625279664993,0.3183369040489197,0.4305832982063293,3.2865307617187502
1766001231739775500,5.665775390625,0.1310304999351501,0.418366014957428,0.5843685269355774,3.305310791015625
1766001231758555600,5.6845556640625,0.1884517818689346,0.483881264925003,0.7317396402359009,3.3240910644531247
1766001231777335800,5.703335693359375,0.3303251266479492,0.4137845337390899,0.8487202525138855,3.3428710937500004
1766001231796116000,5.722115966796875,0.5403099060058594,0.0943022519350051,0.8702532649040222,3.3616513671875
1766001231814896400,5.740896484375,0.6980656981468201,-0.0658970400691032,0.8879683017730713,3.380431884765625
1766001231833676500,5.759676513671875,0.472198486328125,0.3678169548511505,1.0594686269760132,3.3992119140624997
1766001231852456700,5.778456787109375,0.1235474050045013,0.6862302422523499,1.0373247861862185,3.4179921875000003
1766001231871236900,5.79723681640625,0.0789542719721794,0.3262781500816345,0.5266417860984802,3.436772216796875
1766001231890017000,5.81601708984375,0.0855210721492767,0.4658607542514801,-0.3191004991531372,3.455552490234375
1766001231908797200,5.834797119140625,-0.4838049113750458,1.6113849878311155,-0.8416953086853027,3.4743325195312504
1766001231927577300,5.853577392578125,-1.226769208908081,2.1355068683624268,-1.148349404335022,3.49311279296875
1766001231946357500,5.872357421875,-1.6325361728668213,2.3477823734283447,-1.5078433752059937,3.511892822265625
1766001231965137700,5.8911376953125,-1.921017050743103,2.346255302429199,-1.787924885749817,3.5306730957031247
1766001231983917800,5.909917724609375,-2.279900074005127,1.7579925060272217,-2.0457098484039307,3.5494531250000003
1766001232002698000,5.928697998046875,-2.6251914501190186,1.116126298904419,-2.2549309730529785,3.5682333984375
1766001232021478100,5.94747802734375,-2.685514211654663,0.9553161859512328,-2.339688539505005,3.587013427734375
1766001232040258300,5.96625830078125,-2.4608688354492188,1.2941933870315552,-2.298760414123535,3.6057937011718755
1766001232059038500,5.98503857421875,-2.216064691543579,1.5887829065322876,-2.124358654022217,3.6245739746093752
1766001232087209000,6.013208984375,-2.1328344345092773,1.3265691995620728,-1.8332815170288088,3.652744384765625
1766001232105989000,6.031989013671875,-2.0740387439727783,0.8975894451141357,-1.6623921394348145,3.6715244140624996
1766001232134159400,6.060159423828125,-1.796858787536621,0.3841575980186462,-1.4928771257400513,3.69969482421875
1766001232152939500,6.078939453125,-1.531590700149536,0.0794887766242027,-1.296484112739563,3.718474853515625
1766001232171719700,6.0977197265625,-1.2709041833877563,-0.2202931046485901,-1.05091655254364,3.7372551269531247
1766001232190499800,6.116499755859375,-0.8100066781044006,-0.2745073735713959,-0.6769145131111145,3.7560351562500003
1766001232209280000,6.135280029296875,-0.0838411897420883,-0.3169624507427215,-0.1265253722667694,3.7748154296875
1766001232228060200,6.15406005859375,0.7405208349227905,-0.2071595191955566,0.4588358104228973,3.793595458984375
1766001232246840300,6.17284033203125,0.9839504361152648,0.3100902438163757,0.9711986184120178,3.8123757324218754
1766001232265620500,6.191620361328125,1.0835213661193848,0.6237692832946777,1.3972768783569336,3.83115576171875
1766001232284400600,6.210400634765625,1.5306744575500488,0.8164971470832825,1.8270201683044436,3.84993603515625
1766001232312571000,6.23857080078125,2.3235769271850586,0.6885209679603577,2.1994950771331787,3.8781062011718754
1766001232331351000,6.25735107421875,2.7055201530456543,0.2428951114416122,2.326707601547241,3.896886474609375
1766001232350131500,6.27613134765625,2.9153521060943604,-0.5031235218048096,2.421238899230957,3.915666748046875
1766001232368911600,6.29491162109375,2.964832305908203,-0.8090140223503113,2.4676647186279297,3.9344470214843748
1766001232387691800,6.31369189453125,2.845408201217652,-0.5257254838943481,2.4832417964935303,3.9532272949218754
1766001232406472000,6.332471923828125,2.5531094074249268,-0.1756999790668487,2.365192174911499,3.97200732421875
1766001232425252000,6.351252197265625,2.084117889404297,0.3158934414386749,1.9913427829742432,3.99078759765625
1766001232444032300,6.3700322265625,1.4417935609817505,0.727921724319458,1.6685007810592651,4.009567626953125
1766001232462812400,6.3888125,0.919198751449585,0.6094139814376831,1.3061052560806274,4.028347900390625
1766001232481592600,6.407592529296875,0.5288561582565308,0.4362338185310364,0.8140536546707153,4.0471279296875
1766001232500372700,6.426372802734375,-0.0025961752980947,0.4822013974189758,0.312686413526535,4.065908203125
1766001232519153000,6.44515283203125,-0.5584831237792969,0.2716057598590851,0.1848629564046859,4.084688232421875
1766001232537933000,6.46393310546875,-0.6446150541305542,0.2447277009487152,-0.3328449428081512,4.103468505859375
1766001232556713500,6.48271337890625,-0.9666935205459596,0.9928843379020692,-0.9272163510322572,4.122248779296875
1766001232575493400,6.501493408203125,-1.5428917407989502,0.922176718711853,-1.2312743663787842,4.14102880859375
1766001232594273800,6.520273681640625,-1.7563889026641846,0.7891609072685242,-1.598404049873352,4.15980908203125
1766001232613054000,6.539053955078125,-1.932470679283142,0.2508363425731659,-1.8180099725723269,4.17858935546875
1766001232631834000,6.557834228515625,-2.2430953979492188,-0.2424369603395462,-1.827478289604187,4.19736962890625
1766001232650614300,6.5766142578125,-2.1645994186401367,-0.0846811309456825,-1.797698736190796,4.2161496582031255
1766001232669394400,6.59539453125,-2.0775511264801025,0.0747545808553695,-2.1119885444641118,4.234929931640625
1766001232688174600,6.614174560546875,-2.268751859664917,-1.0113630294799805,-2.286390542984009,4.2537099609375
1766001232706954800,6.632954833984375,-2.119089841842652,-1.5858813524246216,-1.9693516492843628,4.272490234375
1766001232735125000,6.661125,-1.1065815687179563,-1.6309325695037842,-1.250363826751709,4.300660400390625
1766001232753905200,6.6799052734375,-0.7878628373146057,-1.3713151216506958,-0.5012909173965454,4.319440673828125
1766001232772685300,6.698685302734375,-0.1131627038121223,-0.6026944518089294,0.2457967102527618,4.338220703125
1766001232791465700,6.7174658203125,0.5865828990936279,-0.2648862302303314,0.9050725102424622,4.3570012207031255
1766001232810246000,6.736245849609375,1.2861758470535278,-0.2732856273651123,1.5044835805892944,4.37578125
1766001232829026000,6.755026123046875,1.759443283081055,-0.2092975378036499,1.6243658065795898,4.3945615234375
1766001232847806200,6.77380615234375,1.6534582376480105,0.0461966507136821,1.345353364944458,4.413341552734375
1766001232866586400,6.79258642578125,0.8516982197761536,0.4111883640289306,0.7428879141807556,4.432121826171875
1766001232885366500,6.811366455078125,-0.5383245944976807,1.0038799047470093,-0.028176138177514,4.45090185546875
1766001232904146700,6.830146728515625,-1.7078251838684082,1.3357322216033936,-0.8748347163200378,4.46968212890625
1766001232922926800,6.8489267578125,-2.492633819580078,1.0203732252120972,-1.4227803945541382,4.488462158203125
1766001232941707000,6.86770703125,-2.229198217391968,-0.0275652725249528,-1.3867393732070925,4.507242431640625
1766001232960487200,6.886487060546875,-1.5621339082717896,-0.6872992515563965,-2.110766887664795,4.5260224609375
1766001232979267600,6.905267578125,-1.6922481060028076,-1.8374048471450808,-2.404592752456665,4.544802978515625
1766001232998047700,6.9240478515625,-1.7652465105056765,-2.840903043746948,-2.295248031616211,4.563583251953125
1766001233016828000,6.942827880859375,-1.1294889450073242,-1.9198716878890991,-1.40155291557312,4.58236328125
1766001233035608000,6.961608154296875,-0.4476111531257629,-1.4655410051345823,-0.4976257085800171,4.6011435546875
1766001233054388200,6.98038818359375,-0.1837175786495208,-0.9788344502449036,0.1023962050676345,4.619923583984375
1766001233073168400,6.99916845703125,-0.0140498895198106,0.1022434905171394,0.4550178945064544,4.638703857421875
1766001233101338600,7.027338623046875,-0.2968802750110626,1.549229383468628,0.8158862590789795,4.6668740234375
1766001233120118800,7.046118896484375,-0.535728394985199,2.029979944229126,0.9996038675308228,4.685654296875
1766001233138899000,7.06489892578125,-0.6096430420875549,2.045251607894897,0.7824414372444153,4.704434326171875
1766001233157679000,7.08367919921875,-0.4798342883586883,0.7456368207931519,0.0903316289186477,4.723214599609375
1766001233176459300,7.102459228515625,-0.7008146047592163,-0.4348593652248382,-0.8187878727912903,4.74199462890625
1766001233195239400,7.121239501953125,-1.7776165008544922,-0.6408734917640686,-1.4273619651794434,4.7607749023437504
1766001233214019800,7.140019775390625,-2.070526123046875,-0.7790816426277161,-1.8067089319229128,4.77955517578125
1766001233232800000,7.158800048828125,-1.7886121273040771,-0.6946296095848083,-2.048764228820801,4.79833544921875
1766001233251580200,7.177580078125,-2.3128867149353027,-0.3207803666591644,-2.395582675933838,4.817115478515625
1766001233270360300,7.1963603515625,-3.6389214992523193,-0.298331081867218,-2.9676575660705566,4.835895751953125
1766001233289140500,7.215140380859375,-3.629453182220459,-0.7602975964546204,-2.9959099292755127,4.85467578125
1766001233307920600,7.233920654296875,-1.7165300846099854,-1.4279727935791016,-1.7906737327575684,4.8734560546875
1766001233326700800,7.25270068359375,-0.0163406319916248,-0.8368083834648132,-1.6630029678344729,4.8922360839843755
1766001233345481000,7.27148095703125,-1.3797907829284668,-0.372245728969574,-1.646662354469299,4.911016357421875
1766001233373651200,7.299651123046875,-0.5933024287223816,-0.1094211563467979,-0.4299724400043487,4.9391865234375
1766001233392431600,7.318431640625,0.10934479534626,-0.1384372264146804,0.2270126193761825,4.957967041015625
1766001233420601900,7.346601806640625,1.2173007726669312,-0.6837867498397827,0.8462768197059631,4.98613720703125
1766001233439382000,7.365382080078125,1.3796380758285522,0.5909352898597717,1.1485021114349363,5.00491748046875
1766001233458162200,7.384162109375,1.1976003646850586,1.0503056049346924,1.210810303688049,5.023697509765625
1766001233476942300,7.4029423828125,0.976925492286682,1.257236123085022,1.228219985961914,5.042477783203125
1766001233495722500,7.421722412109375,0.911562979221344,1.176754593849182,1.339702844619751,5.0612578125
1766001233514502700,7.440502685546875,1.1612539291381836,0.7804561257362366,1.3155736923217771,5.0800380859375
1766001233542673000,7.4686728515625,1.4437788724899292,0.2994000911712646,1.137201189994812,5.108208251953125
1766001233561453300,7.487453369140625,1.2614357471466064,0.3441459536552429,1.2357031106948853,5.12698876953125
1766001233580233500,7.5062333984375,1.327561855316162,0.5787180066108704,1.550451159477234,5.145768798828125
