time,seconds_elapsed,z,y,x,t
1766001233594318600,7.520318603515625,1.6330320835113523,-1.639963150024414,0.411104679107666,5.192719482421874
1766001233613098800,7.5390986328125,-0.3890457153320312,0.316141128540039,-0.4326767921447754,5.21149951171875
1766001233631879000,7.55787890625,-3.4073591232299805,0.6598243713378906,1.89571475982666,5.23027978515625
1766001233660049200,7.586049072265625,-1.386833906173706,-0.4852113723754883,2.0774502754211426,5.258449951171874
1766001233678829300,7.604829345703125,-1.4142900705337524,0.2938413619995117,-0.5225114822387695,5.277230224609375
1766001233697609500,7.623609375,-0.0211477279663085,1.7699451446533203,-2.816096305847168,5.29601025390625
1766001233716389600,7.6423896484375,1.79478657245636,2.3352060317993164,-3.9219932556152335,5.3147905273437495
1766001233735169800,7.661169677734375,-0.1578715443611145,1.8527851104736328,-0.9047038555145264,5.333570556640625
1766001233753950000,7.679949951171875,0.0832499861717224,0.8119106292724609,1.1096824407577517,5.352350830078125
1766001233772730000,7.698730224609375,-0.496195524930954,-0.1158151626586914,0.6574602127075195,5.371131103515625
1766001233791510500,7.717510498046875,-0.3097305595874786,-0.2940435409545898,1.1350688934326172,5.389911376953124
1766001233810290700,7.736290771484375,1.271674871444702,-0.5106010437011719,1.6394946575164795,5.408691650390625
1766001233829070800,7.75507080078125,1.0710291862487793,-0.273076057434082,0.7248744964599609,5.4274716796875
1766001233847851000,7.77385107421875,1.0795005559921265,2.867966651916504,-1.0892131328582764,5.4462519531249995
1766001233866631200,7.792631103515625,3.432726621627808,8.481649398803711,-4.748848915100098,5.465031982421874
1766001233885411300,7.811411376953125,3.712610721588135,9.03671169281006,-10.119810104370115,5.483812255859375
1766001233904191500,7.83019140625,-2.259974479675293,4.75035285949707,-5.49815845489502,5.50259228515625
1766001233922971600,7.8489716796875,-0.4303608238697052,0.01776123046875,-0.7020066976547241,5.521372558593749
1766001233941752000,7.867751953125,0.2458769083023071,-0.1084985733032226,1.0531848669052124,5.54015283203125
1766001233960532000,7.886531982421875,1.903528094291687,2.6794118881225586,2.573856830596924,5.558932861328125
1766001233979312400,7.9053125,1.165817141532898,1.1169071197509766,4.1167168617248535,5.57771337890625
1766001233998092500,7.924092529296875,-0.34686079621315,-2.750302791595459,3.336832046508789,5.596493408203124
1766001234016872700,7.942872802734375,-0.1099332720041275,-1.9711017608642576,0.4694330394268036,5.615273681640625
1766001234035652900,7.96165283203125,1.2255915403366089,2.024698257446289,-1.9563724994659424,5.6340537109375
1766001234054433000,7.98043310546875,1.708221435546875,1.6173686981201172,-3.493454933166504,5.6528339843749995
1766001234073213200,7.999213134765625,0.9573578238487244,-0.2864999771118164,-3.922517776489258,5.671614013671874
1766001234091993300,8.017993408203125,0.8945322632789612,0.0201101303100585,-2.2194643020629883,5.690394287109375
1766001234110773800,8.036773681640625,1.094698429107666,-0.5370368957519531,0.9523818492889404,5.709174560546875
1766001234129554000,8.055553955078125,1.0483474731445312,-1.0830049514770508,2.844198942184448,5.727954833984374
1766001234148334000,8.074333984375,0.1513703465461731,-0.4527807235717773,3.892338991165161,5.74673486328125
1766001234167114200,8.0931142578125,0.7693167924880981,0.4519720077514648,3.323697090148926,5.76551513671875
1766001234185894400,8.111894287109376,-0.4573612213134765,0.5396833419799805,2.867378234863281,5.784295166015626
1766001234204674600,8.130674560546876,-2.128509521484375,-1.662038803100586,2.605214834213257,5.803075439453126
1766001234223454700,8.149454833984375,-2.2620551586151123,-1.727069854736328,2.2725424766540527,5.821855712890626
1766001234242235000,8.16823486328125,-1.0129711627960205,1.0110149383544922,1.402198314666748,5.8406357421875
1766001234261015000,8.18701513671875,-1.1679871082305908,1.203965187072754,-0.733567476272583,5.859416015625001
1766001234279795200,8.205795166015625,-1.036715745925903,-0.0959911346435546,-2.2727975845336914,5.878196044921875
1766001234298575600,8.22457568359375,-1.050418734550476,0.3051567077636719,-0.9069449305534364,5.896976562500001
1766001234317355800,8.243355712890626,-0.5766258239746094,0.7377099990844727,1.9303979873657229,5.915756591796876
1766001234336136000,8.262135986328126,-0.9229437112808228,-0.5499744415283203,3.159804344177246,5.934536865234376
1766001234354916000,8.280916015625,-0.9890382289886476,-1.1940069198608398,2.932178258895874,5.95331689453125
1766001234383086300,8.30908642578125,-0.3957672119140625,0.681361198425293,1.6113547086715698,5.9814873046875
1766001234401866500,8.327866455078125,-0.3852368593215942,0.465188980102539,0.3432331085205078,6.000267333984375
1766001234420646700,8.346646728515625,-0.5273165702819824,0.0158319473266601,-0.4282163381576538,6.019047607421875
1766001234448817200,8.374817138671874,-0.4818707704544067,-0.1413002014160156,0.492850661277771,6.047218017578125
1766001234467597300,8.393597412109376,-0.4934525489807129,-0.6258087158203125,1.1118558645248413,6.065998291015626
1766001234486377500,8.41237744140625,-0.7071484327316284,-1.5948724746704102,0.6700476408004761,6.0847783203125
1766001234505157600,8.43115771484375,-0.5094038844108582,-1.575282096862793,-0.1766470670700073,6.10355859375
1766001234523937800,8.449937744140625,0.2320424914360046,-1.243303298950195,-0.6059606671333313,6.1223386230468755
1766001234542718000,8.468718017578125,1.058354139328003,-1.1945009231567385,-0.2046028673648834,6.141118896484375
1766001234561498000,8.487498046875,1.5326285362243652,-0.456700325012207,-0.3686760067939758,6.159898925781251
1766001234580278300,8.5062783203125,1.6805545091629028,2.674258232116699,-1.356892228126526,6.178679199218751
1766001234599058400,8.525058349609376,0.4892532229423523,3.153497695922852,-0.2938109636306762,6.197459228515626
1766001234617838600,8.543838623046875,-1.837697505950928,-0.5270481109619141,2.473081111907959,6.216239501953126
1766001234646009000,8.572009033203125,-4.059450626373291,-0.9121551513671876,5.989818572998047,6.244409912109376
1766001234664789200,8.590789306640625,-4.444746971130371,0.5473346710205078,6.890511989593506,6.2631901855468755
1766001234692959500,8.61895947265625,-4.562148094177246,1.3528623580932615,5.215484142303467,6.291360351562501
1766001234711739600,8.63773974609375,-4.149352550506592,1.889620780944824,3.795511245727539,6.310140625000001
1766001234730519800,8.656519775390626,-1.6086804866790771,2.3047494888305664,0.978257656097412,6.328920654296876
1766001234749300000,8.675300048828126,2.8151888847351074,0.3180360794067383,-3.0618081092834477,6.347700927734376
1766001234768080400,8.694080322265625,5.929605484008789,-2.065342903137207,-7.095765113830566,6.366481201171876
1766001234786860500,8.712860595703125,5.856586933135986,-2.0024666786193848,-8.193883895874023,6.385261474609376
1766001234805640700,8.731640625,2.490534543991089,-0.8106775283813477,-6.472694396972656,6.404041503906251
1766001234824420900,8.7504208984375,-1.4147396087646484,-1.8320655822753904,-1.8042988777160645,6.422821777343751
1766001234843201000,8.769200927734374,-2.9300711154937744,-3.3241963386535645,1.789580464363098,6.441601806640625
1766001234861981200,8.787981201171876,-4.47454833984375,-3.52111291885376,3.6213412284851074,6.460382080078126
1766001234880761300,8.80676123046875,-4.17707633972168,-3.8858470916748047,4.714643955230713,6.479162109375
1766001234899541500,8.82554150390625,-3.3475430011749268,-4.994015216827393,3.354726791381836,6.4979423828125
1766001234918321700,8.84432177734375,-2.440709590911865,-5.098163604736328,1.0792502164840698,6.51672265625
1766001234937101800,8.863101806640625,-2.3929364681243896,-3.667142868041992,0.801530122756958,6.535502685546875
1766001234955882200,8.88188232421875,-2.726074457168579,-1.1869874000549316,1.1488429307937622,6.554283203125001
1766001234974662400,8.900662353515624,-2.4218409061431885,2.06588077545166,1.867154002189636,6.573063232421875
1766001234993442600,8.919442626953124,10.673988342285156,7.542076110839844,-0.6602840423583984,6.591843505859375
1766001235012222700,8.93822265625,5.957950115203857,4.803978443145752,-9.707587242126465,6.61062353515625
1766001235031003000,8.9570029296875,4.266948699951172,8.792797088623047,-1.4596962928771973,6.62940380859375
1766001235049783000,8.975782958984375,0.9294504523277284,-4.208059310913086,1.1285829544067385,6.648183837890626
1766001235068563200,8.994563232421875,2.248878240585327,-8.236452102661133,-2.8475465774536133,6.6669641113281255
1766001235087343600,9.013343505859376,3.124725818634033,-2.101393699645996,-1.5063546895980835,6.685744384765627
1766001235106123800,9.032123779296874,3.419613838195801,1.6149358749389648,2.3028345108032227,6.704524658203125
1766001235124904000,9.050904052734374,2.44993257522583,0.9156789779663086,1.0247730016708374,6.723304931640625
1766001235143684000,9.06968408203125,1.1778987646102903,-0.8103961944580078,-2.743384599685669,6.7420849609375
1766001235162464300,9.08846435546875,0.0280286073684692,-0.5689220428466797,-3.203523635864258,6.760865234375
1766001235181244400,9.107244384765623,0.351287841796875,0.5266952514648438,-1.4987330436706543,6.779645263671874
1766001235200024600,9.126024658203123,1.0408250093460083,1.0893564224243164,0.5762003660202026,6.798425537109374
1766001235218804700,9.1448046875,0.7740176916122437,1.4088973999023438,1.653473138809204,6.817205566406251
1766001235237585000,9.1635849609375,0.2494586110115051,1.5842952728271484,1.4839770793914795,6.835985839843751
1766001235256365300,9.182365234375,1.0806772708892822,1.3268566131591797,0.7199022769927979,6.854766113281251
1766001235284535600,9.21053564453125,2.783631563186645,0.2506275177001953,-1.6627197265625,6.8829365234375
1766001235303315700,9.229315673828124,1.261454939842224,0.1791362762451172,-2.734610080718994,6.901716552734374
1766001235322095900,9.248095947265623,-1.3824610710144043,1.6885719299316406,-3.822811126708984,6.920496826171874
1766001235340876000,9.2668759765625,-0.6617648601531982,-0.8889350891113281,0.1388916969299316,6.939276855468751
1766001235359656200,9.28565625,-0.4447879791259765,-5.247101783752441,6.329366207122803,6.958057128906251
1766001235378436400,9.304436279296874,-0.9860943555831908,-5.238556385040283,6.240287780761719,6.976837158203125
1766001235397216500,9.323216552734374,-0.3657724857330322,-3.431178092956543,5.821397304534912,6.995617431640625
1766001235415997000,9.341996826171876,-0.309395432472229,-2.579463005065918,4.974521160125732,7.014397705078126
1766001235434777000,9.360777099609376,-1.1491636037826538,0.1791858673095703,2.074995279312134,7.033177978515626
1766001235453557200,9.37955712890625,-3.235851287841797,5.248583793640137,-0.4910814166069031,7.0519580078125
1766001235472337400,9.39833740234375,-5.19362735748291,7.998769760131836,0.1745924353599548,7.07073828125
1766001235491117600,9.41711767578125,-10.850933074951172,3.2069225311279297,4.426877021789551,7.089518554687501
1766001235509897700,9.435897705078125,-10.20359706878662,-1.3765487670898438,8.360458374023438,7.108298583984375
1766001235528678000,9.454677978515624,-2.1176400184631348,1.0362396240234375,4.58897066116333,7.127078857421875
1766001235547458000,9.4734580078125,12.095999717712402,7.767804145812988,-3.746082305908203,7.1458588867187505
1766001235566238200,9.49223828125,-4.130955696105957,5.089947700500488,-5.189923286437988,7.16463916015625
1766001235585018600,9.5110185546875,2.0587661266326904,-0.5567951202392578,-5.235012531280518,7.18341943359375
1766001235603798800,9.529798828125,5.85352897644043,-5.899540901184082,-6.288148403167725,7.20219970703125
1766001235622579000,9.548578857421877,1.544845461845398,-9.068277359008787,-11.22145938873291,7.220979736328127
