time,seconds_elapsed,z,y,x,t
1766001228401599200,2.32759912109375,-1.671652913093567,-4.155584812164307,-1.9446195363998413,0.0
1766001228420379400,2.34637939453125,-2.0613484382629395,0.1328306198120117,1.3953721523284912,0.018780273437500217
1766001228439159600,2.36515966796875,-1.401756763458252,6.551707267761231,4.753070831298828,0.03756054687499999
1766001228457939700,2.383939697265625,-1.2984095811843872,8.124345779418945,6.097090721130371,0.056340576171875156
1766001228476719900,2.402719970703125,-1.3701070547103882,3.9481124877929688,2.2807536125183105,0.07512084960937493
1766001228495500300,2.421500244140625,-3.373692035675049,0.4496622085571289,-1.1719627380371094,0.09390112304687515
1766001228514280400,2.440280517578125,-3.954152822494507,-1.0495128631591797,0.4213149547576904,0.11268139648437492
1766001228533060600,2.459060546875,-1.6758912801742554,-0.8129396438598633,3.5889928340911865,0.13146142578125009
1766001228551840800,2.4778408203125,-0.4267861843109131,-0.0702552795410156,5.041446685791016,0.1502416992187503
1766001228570621000,2.496620849609375,-0.4431443214416504,0.0561294555664062,4.237883567810059,0.16902172851562502
1766001228589401000,2.515401123046875,-1.4724957942962646,-1.9110794067382808,2.0269923210144043,0.18780200195312524
1766001228608181200,2.53418115234375,-2.730111598968506,-3.778441429138184,0.274928331375122,0.20658203124999996
1766001228626961400,2.55296142578125,-1.447594404220581,-4.553390502929688,-2.246936559677124,0.22536230468750018
1766001228645741600,2.571741455078125,0.6882032155990601,-2.4596405029296875,-5.535408973693848,0.2441423339843749
1766001228664521700,2.590521728515625,2.7957992553710938,0.6934528350830078,-5.783660888671875,0.2629226074218751
1766001228683302000,2.609302001953125,4.3077898025512695,0.3026857376098633,-1.9468662738800049,0.2817028808593749
1766001228702082000,2.62808203125,3.062992572784424,-1.5338292121887207,1.8741700649261477,0.30048291015625006
1766001228720862200,2.6468623046875,-1.0002541542053225,-1.3421306610107422,5.159367561340332,0.3192631835937503
1766001228739642400,2.665642333984375,-1.9344406127929688,3.0838451385498047,5.019609451293945,0.338043212890625
1766001228758422500,2.684422607421875,-0.6198878288269043,7.18631649017334,0.6822748184204102,0.3568234863281252
1766001228777202700,2.70320263671875,0.6013524532318115,3.950417518615722,-5.294684410095215,0.37560351562499994
1766001228795982800,2.72198291015625,0.1294409036636352,-0.2901182174682617,-7.96108341217041,0.39438378906250016
1766001228814763000,2.740762939453125,0.2161798477172851,0.7635898590087891,-1.8572676181793213,0.4131638183593753
1766001228842933500,2.76893359375,1.0719400644302368,0.7276105880737305,6.318477630615234,0.44133447265625003
1766001228861713700,2.787713623046875,-0.4263397455215454,-2.430257797241211,6.812060832977295,0.4601145019531252
1766001228880493800,2.806493896484375,-1.800352931022644,-3.400890827178955,2.895346641540528,0.47889477539062497
1766001228899274000,2.82527392578125,-2.442205905914306,-2.3120522499084477,-0.3350200653076172,0.49767480468750014
1766001228918054100,2.84405419921875,-1.151289701461792,-2.882110118865967,-2.257077217102051,0.5164550781249999
1766001228936834300,2.862834228515625,-0.360820323228836,-3.810293674468994,-3.0764284133911133,0.5352351074218751
1766001228955614500,2.881614501953125,0.3312291800975799,-2.798691749572754,-3.1356773376464844,0.5540153808593753
1766001228974394600,2.90039453125,-0.504493772983551,0.5567235946655273,-2.2732481956481934,0.57279541015625
1766001228993174800,2.9191748046875,-1.9035959243774412,2.484511375427246,-0.6300897598266602,0.5915756835937502
1766001229011955000,2.937954833984375,-3.360431671142578,1.510019302368164,0.8463571071624756,0.610355712890625
1766001229030735000,2.956735107421875,-3.821819543838501,-0.5569758415222168,0.8868465423583984,0.6291359863281252
1766001229049515300,2.975515380859375,-2.9125771522521973,-0.3854522705078125,0.9259719848632812,0.647916259765625
1766001229068295400,2.99429541015625,-1.948563575744629,1.4497289657592771,1.989849090576172,0.6666962890625001
1766001229087075600,3.01307568359375,-0.3941612839698791,2.082359313964844,1.8906221389770508,0.6854765625000003
1766001229105855700,3.031855712890625,0.4359368979930877,1.1316862106323242,0.7321751117706299,0.704256591796875
1766001229124636000,3.050635986328125,0.4084962904453277,0.1761636734008789,-0.7919878959655762,0.7230368652343753
1766001229143416000,3.069416015625,0.0340849161148071,0.4416913986206054,-0.812380313873291,0.74181689453125
1766001229171586300,3.09758642578125,0.1329229474067688,0.5455131530761719,0.9035804271697998,0.7699873046875001
1766001229190366500,3.116366455078125,-0.2324573993682861,-0.1570587158203125,1.479421854019165,0.7887673339843753
1766001229209147000,3.13514697265625,-0.3305322527885437,-0.8448247909545898,1.1586799621582031,0.8075478515625001
1766001229227927000,3.153927001953125,-0.5758054256439209,-1.4008874893188477,0.8617575168609619,0.8263278808593753
1766001229246707200,3.172707275390625,-0.6474175453186035,-1.545379638671875,0.914177417755127,0.845108154296875
1766001229265487400,3.1914873046875,-0.5928153991699219,-1.119643211364746,1.0856621265411377,0.8638881835937502
1766001229284267500,3.210267578125,-0.2984930276870727,-0.8283138275146484,0.6446018218994141,0.88266845703125
1766001229303047700,3.229047607421875,0.2848372459411621,-0.8884744644165039,-0.3159968852996826,0.9014484863281251
1766001229321827800,3.247827880859375,0.5943737030029297,-0.763031005859375,-0.5847198963165283,0.9202287597656249
1766001229340608000,3.26660791015625,0.8601643443107605,-0.7163209915161133,0.5198030471801758,0.9390087890625001
1766001229359388200,3.28538818359375,0.8860578536987305,-0.693695068359375,1.3045508861541748,0.9577890625000003
1766001229378168300,3.304168212890625,0.9158092737197876,-0.5433263778686523,0.9849139451980592,0.976569091796875
1766001229396948500,3.322948486328125,0.7585582733154297,-0.5003747940063477,0.5237096548080444,0.9953493652343752
1766001229415728600,3.341728759765625,0.1342644691467285,-0.5627851486206055,0.4692013263702392,1.014129638671875
1766001229434508800,3.3605087890625,-0.1115725040435791,-0.6906833648681641,0.2808868885040283,1.0329096679687502
1766001229453289000,3.3792890625,-0.1613984107971191,-0.7935705184936523,-0.0913366079330444,1.05168994140625
1766001229472069000,3.398069091796875,-0.2302401065826416,-0.800384521484375,0.3356337547302246,1.070469970703125
1766001229490849300,3.416849365234375,-0.3285040855407715,-0.7701854705810547,1.1453323364257812,1.0892502441406253
1766001229509629400,3.43562939453125,-0.3946444988250732,-0.81903076171875,1.5682090520858765,1.1080302734375
1766001229528409600,3.45440966796875,-0.6955704689025879,-0.8457164764404297,1.7392942905426023,1.1268105468750003
1766001229547189800,3.473189697265625,-0.7901444435119629,-0.7960367202758789,1.7204004526138306,1.145590576171875
1766001229565970200,3.49197021484375,-1.2443277835845947,-0.4772272109985351,1.5376756191253662,1.1643710937500003
1766001229584750300,3.510750244140625,-0.9447431564331056,0.0766153335571289,1.1355586051940918,1.183151123046875
1766001229603530500,3.529530517578125,-1.2630858421325684,1.1363487243652344,0.117334246635437,1.2019313964843752
1766001229622310700,3.548310546875,-2.339540481567383,2.404740333557129,-1.6064720153808594,1.22071142578125
1766001229641090800,3.5670908203125,-0.5704326629638672,2.627408027648926,-5.294712543487549,1.2394916992187501
1766001229659871000,3.58587109375,1.120257019996643,3.130974769592285,-7.630425453186035,1.25827197265625
1766001229678651100,3.604651123046875,0.366560697555542,5.072112083435059,-4.799270153045654,1.277052001953125
1766001229697431300,3.623431396484375,1.5187201499938965,6.559452056884766,0.1353894174098968,1.2958322753906253
1766001229716211500,3.64221142578125,2.862302541732788,4.79924201965332,-0.0896920561790466,1.3146123046875
1766001229734991600,3.66099169921875,0.7603099346160889,0.3511228561401367,-1.4481173753738403,1.3333925781250002
1766001229753771800,3.679771728515625,-1.425907015800476,-3.4101052284240723,0.327181875705719,1.352172607421875
1766001229772552000,3.698552001953125,-0.8850792646408081,-3.082923889160156,3.931007146835327,1.3709528808593752
1766001229791332000,3.71733203125,-0.0560948848724365,0.1859035491943359,6.392282009124756,1.38973291015625
1766001229810112300,3.7361123046875,0.3658976554870605,2.267045021057129,4.139348983764648,1.40851318359375
1766001229828892400,3.754892333984375,0.8729426264762878,1.4170398712158203,0.1928749084472656,1.4272932128906253
1766001229847672600,3.773672607421875,0.9047948122024536,0.5818347930908203,-1.6232900619506836,1.446073486328125
1766001229866453000,3.792452880859375,0.4894752502441406,0.2230052947998047,0.6500853300094604,1.4648537597656253
1766001229885233200,3.811233154296875,0.3413496017456054,0.0831623077392578,2.559438943862915,1.483634033203125
1766001229904013300,3.830013427734375,1.503670573234558,0.776921272277832,0.5565958619117737,1.5024143066406253
1766001229922793500,3.84879345703125,2.8476290702819824,1.422682762145996,-3.3162729740142822,1.5211943359375
1766001229941573600,3.86757373046875,3.724992036819458,2.958437919616699,-7.008331298828125,1.5399746093750002
1766001229960353800,3.886353759765625,4.842981815338135,7.0916032791137695,-9.682875633239746,1.558754638671875
1766001229979134000,3.905134033203125,5.544836521148682,10.544422149658203,-8.9793062210083,1.5775349121093751
1766001229997914000,3.9239140625,2.3613758087158203,8.168182373046875,-4.630364418029785,1.5963149414062503
1766001230016694300,3.9426943359375,-2.774700880050659,3.0823631286621094,-0.193690538406372,1.61509521484375
1766001230035474400,3.961474365234375,-5.717193603515625,-0.1808004379272461,3.6928772926330566,1.6338752441406252
1766001230054254600,3.980254638671875,-4.432653903961182,-0.8587551116943359,4.555099487304688,1.652655517578125
1766001230073034800,3.99903466796875,-2.6068689823150635,-0.1574745178222656,2.8962631225585938,1.6714355468750002
1766001230091815000,4.01781494140625,-1.787800669670105,-1.025679588317871,4.422250747680664,1.6902158203125004
1766001230110595000,4.036594970703125,-1.5828192234039309,-2.321134567260742,4.906476020812988,1.7089958496093751
1766001230129375200,4.055375244140625,-1.456627368927002,-4.6371660232543945,3.859513759613037,1.727776123046875
1766001230148155600,4.07415576171875,-0.5353738069534302,-4.8440842628479,2.974061727523804,1.7465566406249997
1766001230166935800,4.092935791015625,-0.3856799900531769,-3.121151924133301,3.1377313137054443,1.7653366699218753
1766001230185716000,4.111716064453125,-0.4719676077365875,-2.53253173828125,1.6595221757888794,1.7841169433593747
1766001230204496100,4.13049609375,-1.4762887954711914,-3.4468021392822266,-0.7863527536392212,1.8028969726562494
1766001230223276300,4.1492763671875,-1.7077229022979736,-3.899084091186523,-2.3113601207733154,1.82167724609375
1766001230242056400,4.168056396484375,-1.2912217378616333,-3.761692523956299,-1.86627197265625,1.8404572753906248
1766001230260836600,4.186836669921875,-0.6139389276504517,-3.184394836425781,-0.526444673538208,1.8592375488281245
1766001230279616800,4.20561669921875,-0.9888732433319092,-2.3646202087402344,0.628730058670044,1.8780175781249993
1766001230298397000,4.22439697265625,-1.0284156799316406,-2.3892040252685547,1.3245347738265991,1.8967978515625
1766001230317177000,4.243177001953125,-0.8243162631988525,-2.8391027450561523,1.4354805946350098,1.9155778808593746
1766001230335957200,4.261957275390625,-0.6098637580871582,-2.482889175415039,1.525146245956421,1.9343581542968744
1766001230354737400,4.2807373046875,0.1473288536071777,-1.553903579711914,1.1187474727630615,1.95313818359375
1766001230382907600,4.30890771484375,-0.9950501918792723,0.2403821945190429,0.5088951587677002,1.9813085937499997
1766001230401687800,4.327687744140625,-2.088817596435547,1.6870765686035156,1.038097858428955,2.0000886230468744
