time,seconds_elapsed,z,y,x,t
1766001229415728600,3.341728759765625,0.1342644691467285,-0.5627851486206055,0.4692013263702392,1.014129638671875
1766001229434508800,3.3605087890625,-0.1115725040435791,-0.6906833648681641,0.2808868885040283,1.0329096679687502
1766001229453289000,3.3792890625,-0.1613984107971191,-0.7935705184936523,-0.0913366079330444,1.05168994140625
1766001229472069000,3.398069091796875,-0.2302401065826416,-0.800384521484375,0.3356337547302246,1.070469970703125
1766001229490849300,3.416849365234375,-0.3285040855407715,-0.7701854705810547,1.1453323364257812,1.0892502441406253
1766001229509629400,3.43562939453125,-0.3946444988250732,-0.81903076171875,1.5682090520858765,1.1080302734375
1766001229528409600,3.45440966796875,-0.6955704689025879,-0.8457164764404297,1.7392942905426023,1.1268105468750003
1766001229547189800,3.473189697265625,-0.7901444435119629,-0.7960367202758789,1.7204004526138306,1.145590576171875
1766001229565970200,3.49197021484375,-1.2443277835845947,-0.4772272109985351,1.5376756191253662,1.1643710937500003
1766001229584750300,3.510750244140625,-0.9447431564331056,0.0766153335571289,1.1355586051940918,1.183151123046875
1766001229603530500,3.529530517578125,-1.2630858421325684,1.1363487243652344,0.117334246635437,1.2019313964843752
1766001229622310700,3.548310546875,-2.339540481567383,2.404740333557129,-1.6064720153808594,1.22071142578125
1766001229641090800,3.5670908203125,-0.5704326629638672,2.627408027648926,-5.294712543487549,1.2394916992187501
1766001229659871000,3.58587109375,1.120257019996643,3.130974769592285,-7.630425453186035,1.25827197265625
1766001229678651100,3.604651123046875,0.366560697555542,5.072112083435059,-4.799270153045654,1.277052001953125
1766001229697431300,3.623431396484375,1.5187201499938965,6.559452056884766,0.1353894174098968,1.2958322753906253
1766001229716211500,3.64221142578125,2.862302541732788,4.79924201965332,-0.0896920561790466,1.3146123046875
1766001229734991600,3.66099169921875,0.7603099346160889,0.3511228561401367,-1.4481173753738403,1.3333925781250002
1766001229753771800,3.679771728515625,-1.425907015800476,-3.4101052284240723,0.327181875705719,1.352172607421875
1766001229772552000,3.698552001953125,-0.8850792646408081,-3.082923889160156,3.931007146835327,1.3709528808593752
1766001229791332000,3.71733203125,-0.0560948848724365,0.1859035491943359,6.392282009124756,1.38973291015625
1766001229810112300,3.7361123046875,0.3658976554870605,2.267045021057129,4.139348983764648,1.40851318359375
1766001229828892400,3.754892333984375,0.8729426264762878,1.4170398712158203,0.1928749084472656,1.4272932128906253
1766001229847672600,3.773672607421875,0.9047948122024536,0.5818347930908203,-1.6232900619506836,1.446073486328125
1766001229866453000,3.792452880859375,0.4894752502441406,0.2230052947998047,0.6500853300094604,1.4648537597656253
1766001229885233200,3.811233154296875,0.3413496017456054,0.0831623077392578,2.559438943862915,1.483634033203125
1766001229904013300,3.830013427734375,1.503670573234558,0.776921272277832,0.5565958619117737,1.5024143066406253
1766001229922793500,3.84879345703125,2.8476290702819824,1.422682762145996,-3.3162729740142822,1.5211943359375
1766001229941573600,3.86757373046875,3.724992036819458,2.958437919616699,-7.008331298828125,1.5399746093750002
1766001229960353800,3.886353759765625,4.842981815338135,7.0916032791137695,-9.682875633239746,1.558754638671875
1766001229979134000,3.905134033203125,5.544836521148682,10.544422149658203,-8.9793062210083,1.5775349121093751
1766001229997914000,3.9239140625,2.3613758087158203,8.168182373046875,-4.630364418029785,1.5963149414062503
1766001230016694300,3.9426943359375,-2.774700880050659,3.0823631286621094,-0.193690538406372,1.61509521484375
1766001230035474400,3.961474365234375,-5.717193603515625,-0.1808004379272461,3.6928772926330566,1.6338752441406252
1766001230054254600,3.980254638671875,-4.432653903961182,-0.8587551116943359,4.555099487304688,1.652655517578125
1766001230073034800,3.99903466796875,-2.6068689823150635,-0.1574745178222656,2.8962631225585938,1.6714355468750002
1766001230091815000,4.01781494140625,-1.787800669670105,-1.025679588317871,4.422250747680664,1.6902158203125004
1766001230110595000,4.036594970703125,-1.5828192234039309,-2.321134567260742,4.906476020812988,1.7089958496093751
1766001230129375200,4.055375244140625,-1.456627368927002,-4.6371660232543945,3.859513759613037,1.727776123046875
1766001230148155600,4.07415576171875,-0.5353738069534302,-4.8440842628479,2.974061727523804,1.7465566406249997
1766001230166935800,4.092935791015625,-0.3856799900531769,-3.121151924133301,3.1377313137054443,1.7653366699218753
1766001230185716000,4.111716064453125,-0.4719676077365875,-2.53253173828125,1.6595221757888794,1.7841169433593747
1766001230204496100,4.13049609375,-1.4762887954711914,-3.4468021392822266,-0.7863527536392212,1.8028969726562494
1766001230223276300,4.1492763671875,-1.7077229022979736,-3.899084091186523,-2.3113601207733154,1.82167724609375
1766001230242056400,4.168056396484375,-1.2912217378616333,-3.761692523956299,-1.86627197265625,1.8404572753906248
1766001230260836600,4.186836669921875,-0.6139389276504517,-3.184394836425781,-0.526444673538208,1.8592375488281245
1766001230279616800,4.20561669921875,-0.9888732433319092,-2.3646202087402344,0.628730058670044,1.8780175781249993
1766001230298397000,4.22439697265625,-1.0284156799316406,-2.3892040252685547,1.3245347738265991,1.8967978515625
1766001230317177000,4.243177001953125,-0.8243162631988525,-2.8391027450561523,1.4354805946350098,1.9155778808593746
1766001230335957200,4.261957275390625,-0.6098637580871582,-2.482889175415039,1.525146245956421,1.9343581542968744
1766001230354737400,4.2807373046875,0.1473288536071777,-1.553903579711914,1.1187474727630615,1.95313818359375
1766001230382907600,4.30890771484375,-0.9950501918792723,0.2403821945190429,0.5088951587677002,1.9813085937499997
1766001230401687800,4.327687744140625,-2.088817596435547,1.6870765686035156,1.038097858428955,2.0000886230468744
1766001230420468000,4.346468017578125,-0.5377602577209473,2.7095842361450195,0.1382763385772705,2.018868896484375
1766001230439248100,4.365248046875,0.670107364654541,3.256468772888184,-1.6471600532531738,2.03764892578125
1766001230458028300,4.3840283203125,1.970075845718384,3.835148811340332,-3.2890830039978027,2.0564291992187496
1766001230476808700,4.40280859375,2.605679035186768,3.7887582778930655,-2.4446334838867188,2.0752094726562493
1766001230495588900,4.4215888671875,2.10601544380188,2.35067081451416,-0.8043613433837891,2.09398974609375
1766001230514369000,4.440369140625,0.7183890342712402,1.599100112915039,0.1184720993041992,2.1127700195312498
1766001230533149200,4.459149169921875,-2.055159330368042,1.267473220825195,1.6320364475250244,2.1315500488281245
1766001230551929300,4.477929443359375,-3.802903175354004,-0.2608194351196289,2.474430561065674,2.1503303222656243
1766001230570709500,4.49670947265625,-3.384901523590088,-1.567056655883789,2.236431121826172,2.1691103515625
1766001230589489700,4.51548974609375,-3.335854768753052,-2.4780168533325195,3.0901412963867188,2.1878906249999996
1766001230608269800,4.534269775390625,-3.499666690826416,-3.151857376098633,4.600599765777588,2.2066706542968744
1766001230627050000,4.553050048828125,-4.0416579246521,-4.208683013916016,6.200679779052734,2.225450927734375
1766001230645830100,4.571830078125,-3.1692612171173096,-6.36473560333252,7.1786274909973145,2.2442309570312498
1766001230664610300,4.5906103515625,-2.7361550331115723,-7.262774467468262,5.832788467407227,2.2630112304687495
1766001230683390500,4.609390380859375,-1.144028663635254,-7.267752170562744,4.551513195037842,2.2817912597656242
1766001230702170600,4.628170654296875,-1.6202147006988523,-6.109529495239258,4.111722946166992,2.300571533203125
1766001230720950800,4.64695068359375,-1.3739420175552368,-2.8583297729492188,1.8463298082351685,2.3193515624999996
1766001230739731000,4.66573095703125,-0.3992432355880737,1.970808029174805,-1.0428013801574707,2.3381318359374994
1766001230758511400,4.684511474609375,0.808172345161438,5.211014747619629,-2.334172487258911,2.3569123535156242
1766001230777291500,4.70329150390625,1.34036123752594,3.5386648178100586,-3.5406410694122314,2.3756923828125
1766001230805461800,4.731461669921875,2.232595443725586,2.73583984375,-5.97682523727417,2.4038625488281244
1766001230824242000,4.750241943359375,0.8973768949508667,6.096822738647461,-5.313178539276123,2.422642822265625
1766001230852412200,4.778412109375,0.2705926299095154,4.545759201049805,-1.8521087169647217,2.4508129882812497
1766001230871192300,4.7971923828125,-1.0760061740875244,2.571957588195801,0.2336325943470001,2.4695932617187495
1766001230889972500,4.815972412109375,1.0878499746322632,2.4389686584472656,-0.162609726190567,2.488373291015625
1766001230908752600,4.834752685546875,2.3582589626312256,2.895912170410156,-0.1415558755397796,2.507153564453125
1766001230927532800,4.85353271484375,-3.2858145236968994,5.555994987487793,-3.04465651512146,2.5259335937499996
1766001230946313000,4.87231298828125,0.8108001351356506,6.554525375366211,-6.347710609436035,2.5447138671874994
1766001230965093000,4.891093017578125,2.6827080249786377,1.3643417358398438,-5.670480728149414,2.563493896484375
1766001230983873300,4.909873291015625,1.7500240802764893,-2.295662403106689,-5.100656032562256,2.5822741699218748
1766001231012043500,4.93804345703125,-0.3213046193122864,-2.4022321701049805,-5.807606220245361,2.6104443359374994
1766001231030824000,4.956823974609375,-0.5884971618652344,-3.066837310791016,-1.7252832651138306,2.629224853515625
1766001231049604000,4.97560400390625,-1.159550428390503,-3.575869083404541,1.3748704195022583,2.6480048828125
1766001231068384300,4.99438427734375,-2.2487130165100098,-3.04556655883789,1.7350558042526243,2.6667851562499996
1766001231087164400,5.013164306640625,-2.39258360862732,-2.1528773307800293,1.414975643157959,2.6855651855468743
1766001231105944600,5.031944580078125,-1.5256829261779783,-2.169006824493408,1.4098100662231443,2.704345458984375
1766001231124724700,5.050724853515625,-1.4367674589157104,-1.9099831581115725,1.0397934913635254,2.7231257324218747
1766001231143505000,5.0695048828125,-1.183983325958252,-1.5077581405639648,0.2681477665901184,2.7419057617187494
1766001231171675100,5.097675048828125,-0.7663090229034424,-0.6560869216918945,-0.200763463973999,2.770075927734375
1766001231190455300,5.116455322265625,-0.0353412628173828,0.1532230377197265,0.3797731399536133,2.7888562011718747
1766001231209235500,5.1352353515625,-0.0380806922912597,0.7486629486083984,1.282537817955017,2.8076362304687494
1766001231228015600,5.154015625,0.1771630048751831,0.4946107864379883,1.925911545753479,2.82641650390625
1766001231246795800,5.172795654296875,0.2320224046707153,-0.3480329513549804,2.337560176849365,2.845196533203125
1766001231265576000,5.191575927734375,-0.1518142223358154,-0.630396842956543,2.495355129241944,2.8639768066406246
1766001231284356000,5.210356201171875,0.4174761772155761,-0.1975078582763672,2.429574966430664,2.8827570800781244
1766001231303136300,5.22913623046875,2.0933334827423096,1.0225305557250977,1.696800947189331,2.901537109375
1766001231321916400,5.24791650390625,2.634559154510498,1.9533205032348635,0.160189688205719,2.9203173828124998
1766001231340696800,5.26669677734375,3.3235154151916504,2.409095764160156,-1.3645446300506592,2.9390976562499995
1766001231359477000,5.28547705078125,2.6908392906188965,2.585272789001465,-1.9097554683685305,2.9578779296874993
1766001231378257200,5.304257080078125,2.1845011711120605,2.3671112060546875,-1.865159034729004,2.976657958984375
1766001231397037300,5.323037353515625,0.5768305659294128,2.678433418273926,-1.560182809829712,2.9954382324218747
1766001231415817500,5.3418173828125,-0.0537112951278686,2.106239318847656,-2.1555657386779785,3.0142182617187494
1766001231443987700,5.36998779296875,0.9595397710800172,-0.6565780639648438,-1.7662239074707031,3.042388671875
