time,seconds_elapsed,z,y,x,t
1765999688754744600,13.65374462890625,0.0888808220624923,0.3142135739326477,-0.2622900605201721,5.14522705078125
1765999688782912000,13.681912109375,0.044287696480751,0.2370918989181518,-0.2560287117958069,5.1733945312500005
1765999688801690000,13.700690185546875,0.0068722288124263,0.2537379562854767,-0.25266894698143,5.192172607421876
1765999688820468500,13.719468505859377,-0.0219911318272352,0.2315941154956817,-0.2632063627243042,5.210950927734377
1765999688839246800,13.738246826171874,-0.0368046015501022,0.1618028134107589,-0.283975750207901,5.2297292480468744
1765999688858025000,13.75702490234375,-0.048105601221323,0.1469893306493759,-0.284433901309967,5.24850732421875
1765999688876803000,13.775802978515625,-0.065515249967575,0.1518762558698654,-0.2691622972488403,5.267285400390625
1765999688895581400,13.79458154296875,-0.0734564885497093,0.170965775847435,-0.2331212759017944,5.28606396484375
1765999688914359600,13.813359619140623,-0.0626136362552642,0.148363783955574,-0.2001345753669738,5.304842041015624
1765999688933138000,13.832137939453125,-0.0490218997001647,0.0849865600466728,-0.1621082425117492,5.323620361328125
1765999688951916300,13.850916259765626,-0.0397062115371227,-0.0041996953077614,-0.1277471035718917,5.342398681640626
1765999688970694400,13.8696943359375,-0.0340557098388671,-0.0611628368496894,-0.1001054644584655,5.361176757812499
1765999688989472500,13.888472412109374,-0.0332921296358108,-0.0436004735529422,-0.0613155514001846,5.379954833984375
1765999689008251000,13.9072509765625,-0.0363464541733264,-0.0500145554542541,-0.0390189886093139,5.3987333984375
1765999689027029200,13.926029296875,-0.0455094277858734,-0.0961348414421081,-0.0239000841975212,5.417511718750001
1765999689045807400,13.944807373046874,-0.0548251122236251,-0.169591337442398,-0.0144316805526614,5.4362897949218745
1765999689073974800,13.972974853515623,-0.0827721804380416,-0.2822958827018738,0.0133626665920019,5.4644572753906235
1765999689092753000,13.9917529296875,-0.0946840420365333,-0.3294851779937744,0.040240716189146,5.4832353515625005
1765999689111531300,14.01053125,-0.0827721804380416,-0.4577668011188507,0.0721584036946296,5.502013671875
1765999689130309400,14.029309326171877,-0.0919351503252983,-0.5787180066108704,0.0894153341650962,5.520791748046877
1765999689149087700,14.048087646484374,-0.1258381456136703,-0.6129264235496521,0.1004109010100364,5.5395700683593745
1765999689167865900,14.066865966796875,-0.173485592007637,-0.5600866675376892,0.1059086844325065,5.558348388671876
1765999689196033300,14.095033203125,-0.2287688553333282,-0.437760978937149,0.0946076810359954,5.5865156250000005
1765999689214811600,14.113811767578126,-0.272751122713089,-0.4328740537166595,0.0739909932017326,5.605294189453126
1765999689233589800,14.13258984375,-0.3164279460906982,-0.3979020416736603,0.06146826967597,5.624072265625001
1765999689252368100,14.1513681640625,-0.3703367710113525,-0.3734674453735351,0.0646753087639808,5.6428505859375
1765999689271146200,14.170146240234375,-0.4011854529380798,-0.3467421233654022,0.0901789143681526,5.661628662109376
1765999689289924600,14.188924560546877,-0.4257727563381195,-0.3446041047573089,0.1158352345228195,5.680406982421877
1765999689308702700,14.20770263671875,-0.4680751264095306,-0.377285361289978,0.1289688199758529,5.69918505859375
1765999689327481000,14.226481201171875,-0.5079340934753418,-0.3959167301654815,0.1477529257535934,5.7179636230468756
1765999689346259200,14.24525927734375,-0.5367974042892456,-0.3406334817409515,0.1796706020832061,5.736741699218751
1765999689365037600,14.26403759765625,-0.5584831237792969,-0.2549596726894378,0.210671991109848,5.75552001953125
1765999689383815700,14.282815673828123,-0.5699368119239807,-0.2265544682741165,0.2404516488313675,5.774298095703124
1765999689402594000,14.301593994140624,-0.5687150955200195,-0.2577085793018341,0.2584721744060516,5.793076416015625
1765999689421372400,14.320372314453126,-0.5615374445915222,-0.3116174042224884,0.2629009187221527,5.811854736328126
1765999689440150500,14.339150634765623,-0.5610793232917786,-0.3739255964756012,0.2570977210998535,5.8306330566406235
1765999689458929000,14.357928955078124,-0.5473348498344421,-0.4231002032756805,0.267024278640747,5.849411376953125
1765999689477707000,14.37670703125,-0.5190823674201965,-0.4673879146575928,0.2975675165653229,5.868189453125
1765999689496485400,14.3954853515625,-0.4783071279525757,-0.5562687516212463,0.3198640644550323,5.886967773437501
1765999689515263500,14.414263427734374,-0.3962985277175903,-0.6303361058235168,0.3102429509162903,5.905745849609374
1765999689534041900,14.433041748046875,-0.2803869247436523,-0.6098721027374268,0.279394268989563,5.924524169921876
1765999689552820000,14.451820068359376,-0.141262486577034,-0.5903244614601135,0.2781725525856018,5.943302490234377
1765999689571598300,14.470598388671876,0.0097738364711403,-0.5243510603904724,0.298789232969284,5.962080810546876
1765999689590376400,14.48937646484375,0.2292270064353943,-0.5744419693946838,0.3959167301654815,5.9808588867187495
1765999689609154800,14.50815478515625,0.4894554018974304,-0.9699769020080566,0.5177842378616333,5.999637207031251
1765999689637322200,14.536322265625,1.165988206863403,-2.163606643676758,0.6787471175193787,6.0278046875
1765999689656100400,14.555100341796877,1.56350839138031,-2.9195518493652344,0.931950569152832,6.046582763671877
1765999689674878700,14.573878662109376,1.5752675533294678,-3.287750482559204,1.3630683422088623,6.065361083984376
1765999689693656800,14.59265673828125,1.515860915184021,-2.7628650665283203,1.7615050077438354,6.08413916015625
1765999689712435200,14.611435302734376,1.488066554069519,-1.448742151260376,2.1232895851135254,6.102917724609377
1765999689731213600,14.630213623046876,1.4369066953659058,-0.4240165054798126,2.407647132873535,6.121696044921876
1765999689749991700,14.64899169921875,1.4474440813064575,-0.0235946513712406,2.590295791625977,6.1404741210937495
1765999689768770000,14.66777001953125,1.4828742742538452,-0.124845489859581,2.668486356735229,6.159252441406251
1765999689787548200,14.686548095703126,1.508530616760254,-0.5477166175842285,2.6493968963623047,6.178030517578126
1765999689806326500,14.705326416015623,1.436448574066162,-0.9043089747428894,2.5843398571014404,6.196808837890623
1765999689825104600,14.724104736328124,1.2606722116470337,-0.942335307598114,2.476063966751098,6.215587158203125
1765999689843883000,14.742883056640624,1.026863694190979,-0.6947823166847229,2.304410934448242,6.234365478515624
1765999689862661000,14.7616611328125,0.7994692921638489,-0.349643737077713,2.080681800842285,6.253143554687501
1765999689881439500,14.780439453125,0.6592758297920227,0.0098501946777105,1.827478289604187,6.271921875
1765999689900217600,14.799217529296875,0.551152765750885,0.2796997129917145,1.5448006391525269,6.2906999511718755
1765999689918996000,14.817995849609376,0.4179842174053192,0.4628064334392547,1.2062288522720337,6.309478271484377
1765999689937774300,14.8367744140625,0.3155116438865661,0.588949978351593,0.8154281377792358,6.3282568359375
1765999689956552400,14.855552490234375,0.2874118685722351,0.6150645017623901,0.3102429509162903,6.347034912109375
1765999689975330800,14.874330810546876,0.3740019500255584,0.4814378023147583,-0.2980256676673889,6.365813232421877
1765999689994109000,14.89310888671875,0.5163334608078003,0.1013271957635879,-0.9594395160675048,6.38459130859375
1765999690012887300,14.91188720703125,0.6406444311141968,-0.4942659735679626,-1.606345295906067,6.403369628906249
1765999690031665700,14.930665771484374,0.7496837973594666,-1.0716859102249146,-2.2133922576904297,6.422148193359375
1765999690050443800,14.94944384765625,0.8747583627700806,-1.474398493766785,-2.7379722595214844,6.44092626953125
1765999690069222100,14.96822216796875,1.004719853401184,-1.7051526308059692,-3.1768786907196045,6.459704589843751
1765999690088000300,14.987000244140624,1.199738383293152,-1.8459570407867432,-3.5849363803863525,6.4784826660156245
1765999690106778600,15.005778564453124,1.4818052053451538,-1.9548436403274536,-3.9681012630462646,6.497260986328124
1765999690125556700,15.024556640625,1.8110613822937007,-2.152305603027344,-4.283001899719238,6.516039062500001
1765999690144335000,15.043335205078124,2.072969675064087,-2.512868642807007,-4.485656261444092,6.534817626953124
1765999690163113500,15.062113525390624,2.17147159576416,-3.0649375915527344,-4.551476955413818,6.553595947265624
1765999690181891600,15.0808916015625,2.1134393215179443,-3.3815183639526367,-4.207254886627197,6.572374023437501
1765999690200670000,15.099669921875,0.8115338683128357,-2.141462802886963,-1.5374703407287598,6.59115234375
1765999690219448000,15.118447998046875,-0.4871646761894226,1.26731538772583,-1.581605315208435,6.609930419921875
1765999690238226400,15.137226318359374,1.0430516004562378,1.1175007820129397,-2.2659265995025635,6.628708740234375
1765999690257004500,15.156004638671876,0.9334014058113098,1.5338051319122314,-1.7679190635681152,6.647487060546876
1765999690275783000,15.174782958984377,0.0021380267571657,1.5884774923324585,-1.1946223974227903,6.666265380859377
1765999690294561300,15.193561279296874,-0.0232128612697124,0.4667770564556122,-0.9861648082733154,6.685043701171875
1765999690313339400,15.21233935546875,-0.0471893027424812,0.3604865670204162,-0.6856193542480469,6.70382177734375
1765999690332117800,15.23111767578125,-0.1925751268863678,0.8374192714691162,-0.266107976436615,6.722600097656251
1765999690360285200,15.25928515625,-0.4085158109664917,1.3728421926498413,0.3861429095268249,6.750767578125
1765999690379063300,15.278063232421877,-0.5186241865158081,1.7819689512252808,0.7552579641342163,6.769545654296877
1765999690397841700,15.296841552734374,-0.6210967898368835,2.1258857250213623,1.1196388006210327,6.788323974609375
1765999690416619800,15.315619873046876,-0.665842592716217,2.2969279289245605,1.4632502794265747,6.807102294921876
1765999690435398100,15.334398193359377,-0.6898190379142761,2.316781044006348,1.6955316066741943,6.825880615234377
1765999690454176300,15.35317626953125,-0.7046325206756592,2.274631261825561,1.8929935693740845,6.84465869140625
1765999690472954600,15.37195458984375,-0.7018836140632629,2.188804864883423,2.070908069610596,6.86343701171875
1765999690491733000,15.39073291015625,-0.7122683525085449,2.113515853881836,2.217668294906616,6.882215332031251
1765999690510511000,15.409510986328126,-0.7738129496574402,2.0928990840911865,2.3300673961639404,6.900993408203126
1765999690529289500,15.42828955078125,-0.8344413042068481,2.1376450061798096,2.387336015701294,6.91977197265625
1765999690548067800,15.44706787109375,-0.8419243693351746,2.2579853534698486,2.361984968185425,6.938550292968751
1765999690566846000,15.465845947265626,-0.8222240209579468,2.306854486465454,2.267453670501709,6.957328369140626
1765999690585624300,15.484624267578123,-0.8188642263412476,2.238132238388061,2.1242058277130127,6.976106689453124
1765999690604402400,15.50340234375,-0.7589994668960571,2.104963779449463,1.9409464597702024,6.994884765625001
1765999690623180800,15.522180908203126,-0.6440041661262512,1.7776929140090942,1.7648646831512451,7.013663330078126
1765999690641959000,15.540958984375,-0.574212908744812,1.3357322216033936,1.5773292779922483,7.032441406249999
1765999690660737300,15.5597373046875,-0.5459604263305664,0.8969785571098328,1.3342050313949585,7.0512197265625005
1765999690688904700,15.58790478515625,-0.4703658819198608,0.4864774346351623,0.9585232138633728,7.07938720703125
1765999690707683000,15.60668310546875,-0.4575377106666565,0.2835176289081573,0.728532612323761,7.098165527343751
1765999690726461200,15.625461181640626,-0.4954113364219665,0.1689804643392563,0.4794524908065796,7.116943603515626
1765999690745239600,15.644239501953123,-0.6036871075630188,0.2599993348121643,0.1958585232496261,7.1357219238281235
1765999690764017700,15.663017578125,-0.7057015299797058,0.4382191300392151,-0.0857501402497291,7.1545000000000005
1765999690782796000,15.681796142578126,-0.7582359313964844,0.5802451968193054,-0.3914879560470581,7.173278564453126
1765999690801574400,15.700574462890623,-0.7690787315368652,0.7506764531135559,-0.7410553097724915,7.192056884765623
