time,seconds_elapsed,z,y,x,t
1765999687721941800,12.620941650390623,0.3894262909889221,-2.3477823734283447,0.5471057891845703,4.112424072265624
1765999687740720000,12.63972021484375,0.4625773429870605,-2.203312873840332,0.5396226644515991,4.131202636718751
1765999687768887300,12.66788720703125,0.4436405599117279,-2.100229501724243,0.5581013560295105,4.15936962890625
1765999687797054700,12.6960546875,0.6047561168670654,-2.2741732597351074,0.8783472180366516,4.1875371093750005
1765999687815832800,12.714832763671875,0.7049379348754883,-2.3102142810821533,1.199814796447754,4.206315185546876
1765999687834611200,12.733611083984377,0.7128791809082031,-1.7860922813415527,1.575649380683899,4.225093505859377
1765999687853389300,12.752389404296874,0.472045749425888,-0.7296016216278076,1.9110140800476076,4.243871826171874
1765999687872167700,12.771167724609375,0.2356410920619964,0.4852557182312011,2.12481689453125,4.262650146484376
1765999687890945800,12.78994580078125,0.0780379772186279,1.515937328338623,2.1770458221435547,4.281428222656251
1765999687909724200,12.80872412109375,-0.0314595364034175,1.890397429466248,1.9777511358261108,4.30020654296875
1765999687928502300,12.827502197265623,-0.146302118897438,1.520366072654724,1.4791326522827148,4.318984619140624
1765999687947280600,12.84628076171875,-0.3848448097705841,0.6784417033195496,0.7995456457138062,4.337763183593751
1765999687966058800,12.865058837890626,-0.6748528480529785,-0.308563083410263,0.0248163808137178,4.356541259765626
1765999687984837000,12.883837158203123,-0.8397863507270813,-1.3270273208618164,-0.8797216415405273,4.3753195800781235
1765999688003615200,12.902615234375,-0.950352907180786,-2.570442676544189,-1.9136103391647337,4.3940976562500005
1765999688022393300,12.921393310546875,-0.9161444306373596,-3.8335583209991455,-3.176115036010742,4.412875732421876
1765999688041171700,12.940171630859377,-0.5781835317611694,-4.278878688812256,-3.418781042098999,4.431654052734377
1765999688069339100,12.968339111328126,-0.2981020212173462,-5.314447402954102,-3.908236503601074,4.459821533203126
1765999688088117200,12.9871171875,0.2718348205089569,-1.5622103214263916,-3.661447048187256,4.478599609375001
1765999688106895400,13.005895263671874,1.1658353805541992,0.7314342260360718,-3.701000690460205,4.497377685546875
1765999688125673700,13.024673828125,0.4379900395870209,1.857257962226868,-2.4415502548217773,4.51615625
1765999688144451800,13.043451904296877,-0.4967857897281647,2.938183307647705,-1.6655992269515991,4.534934326171877
1765999688163230200,13.062230224609374,-0.1992946416139602,3.834627389907837,-1.1891247034072876,4.5537126464843745
1765999688182008600,13.081008544921875,0.2331976294517517,3.4035093784332275,-0.6781362891197205,4.572490966796876
1765999688200786700,13.09978662109375,0.2608392536640167,2.5730388164520264,-0.2031888961791992,4.591269042968751
1765999688219564800,13.118564697265626,0.6527090072631836,1.6465096473693848,0.2885572612285614,4.610047119140626
1765999688238343200,13.13734326171875,0.7933606505393982,0.8526908755302429,0.7349466681480408,4.62882568359375
1765999688257121300,13.156121337890625,0.7539598345756531,0.8603267073631287,1.0648136138916016,4.647603759765625
1765999688275899600,13.174899658203126,0.7057015299797058,1.2972477674484253,1.3102285861968994,4.666382080078126
1765999688304067000,13.203067138671877,0.6305651664733887,1.8496222496032717,1.4992913007736206,4.694549560546877
1765999688322845200,13.22184521484375,0.5531380772590637,1.982943415641785,1.5044835805892944,4.71332763671875
1765999688341623300,13.240623291015623,0.5064069032669067,1.904600024223328,1.4707332849502563,4.732105712890624
1765999688360401700,13.259401611328125,0.5190823674201965,1.5910736322402954,1.3942224979400637,4.750884033203125
1765999688379179800,13.2781796875,0.5790998339653015,1.2204314470291138,1.2760201692581177,4.769662109375
1765999688397958100,13.296958251953123,0.6253728270530701,0.8972840309143066,1.0761146545410156,4.7884406738281236
1765999688416736300,13.315736328125,0.5998691916465759,0.6869937777519226,0.8797216415405273,4.8072187500000005
1765999688435514600,13.3345146484375,0.5097666382789612,0.414089947938919,0.6960040330886841,4.8259970703125
1765999688454292700,13.353292724609377,0.4586067199707031,0.1986074149608612,0.4913643598556518,4.844775146484377
1765999688473071000,13.372071044921874,0.4689914286136627,0.1333975940942764,0.3113119602203369,4.8635534667968745
1765999688491849200,13.39084912109375,0.397825688123703,0.0367282442748546,0.0547487549483776,4.88233154296875
1765999688510627600,13.409627685546877,0.2918406426906585,0.0620791316032409,-0.544967770576477,4.901110107421877
1765999688529405700,13.42840576171875,-0.0872009471058845,-0.0727692693471908,-0.8620065450668335,4.91988818359375
1765999688548184000,13.44718408203125,0.1754709035158157,-0.2589302957057953,-0.5438987016677856,4.93866650390625
1765999688566962200,13.465962158203125,0.528092622756958,-0.0054214247502386,-0.065286174416542,4.957444580078125
1765999688585740500,13.484740478515626,0.3229947388172149,0.128052532672882,0.0709366723895073,4.976222900390626
1765999688604518700,13.5035185546875,0.2768744528293609,0.2887099683284759,0.085597425699234,4.995000976562499
1765999688623297000,13.522297119140624,0.3698786199092865,0.3585012555122375,0.0162642747163772,5.013779541015625
1765999688642075100,13.5410751953125,0.4228711426258087,0.3146717250347137,-0.0921642258763313,5.0325576171875
1765999688660853500,13.559853515625,0.3483456373214721,0.2575558722019195,-0.2219729870557785,5.051335937500001
1765999688679631600,13.578631591796874,0.2157879769802093,0.358806699514389,-0.2367864549160003,5.0701140136718745
1765999688698410000,13.597409912109375,0.1395826041698455,0.4757873117923736,-0.2167806327342987,5.088892333984376
1765999688717188000,13.61618798828125,0.1536324918270111,0.5151880979537964,-0.2280816435813903,5.107670410156251
1765999688735966500,13.634966552734374,0.1279761642217636,0.4527271687984466,-0.2509890794754028,5.126448974609374
1765999688754744600,13.65374462890625,0.0888808220624923,0.3142135739326477,-0.2622900605201721,5.14522705078125
1765999688782912000,13.681912109375,0.044287696480751,0.2370918989181518,-0.2560287117958069,5.1733945312500005
1765999688801690000,13.700690185546875,0.0068722288124263,0.2537379562854767,-0.25266894698143,5.192172607421876
1765999688820468500,13.719468505859377,-0.0219911318272352,0.2315941154956817,-0.2632063627243042,5.210950927734377
1765999688839246800,13.738246826171874,-0.0368046015501022,0.1618028134107589,-0.283975750207901,5.2297292480468744
1765999688858025000,13.75702490234375,-0.048105601221323,0.1469893306493759,-0.284433901309967,5.24850732421875
1765999688876803000,13.775802978515625,-0.065515249967575,0.1518762558698654,-0.2691622972488403,5.267285400390625
1765999688895581400,13.79458154296875,-0.0734564885497093,0.170965775847435,-0.2331212759017944,5.28606396484375
1765999688914359600,13.813359619140623,-0.0626136362552642,0.148363783955574,-0.2001345753669738,5.304842041015624
1765999688933138000,13.832137939453125,-0.0490218997001647,0.0849865600466728,-0.1621082425117492,5.323620361328125
1765999688951916300,13.850916259765626,-0.0397062115371227,-0.0041996953077614,-0.1277471035718917,5.342398681640626
1765999688970694400,13.8696943359375,-0.0340557098388671,-0.0611628368496894,-0.1001054644584655,5.361176757812499
1765999688989472500,13.888472412109374,-0.0332921296358108,-0.0436004735529422,-0.0613155514001846,5.379954833984375
1765999689008251000,13.9072509765625,-0.0363464541733264,-0.0500145554542541,-0.0390189886093139,5.3987333984375
1765999689027029200,13.926029296875,-0.0455094277858734,-0.0961348414421081,-0.0239000841975212,5.417511718750001
1765999689045807400,13.944807373046874,-0.0548251122236251,-0.169591337442398,-0.0144316805526614,5.4362897949218745
1765999689073974800,13.972974853515623,-0.0827721804380416,-0.2822958827018738,0.0133626665920019,5.4644572753906235
1765999689092753000,13.9917529296875,-0.0946840420365333,-0.3294851779937744,0.040240716189146,5.4832353515625005
1765999689111531300,14.01053125,-0.0827721804380416,-0.4577668011188507,0.0721584036946296,5.502013671875
1765999689130309400,14.029309326171877,-0.0919351503252983,-0.5787180066108704,0.0894153341650962,5.520791748046877
1765999689149087700,14.048087646484374,-0.1258381456136703,-0.6129264235496521,0.1004109010100364,5.5395700683593745
1765999689167865900,14.066865966796875,-0.173485592007637,-0.5600866675376892,0.1059086844325065,5.558348388671876
1765999689196033300,14.095033203125,-0.2287688553333282,-0.437760978937149,0.0946076810359954,5.5865156250000005
1765999689214811600,14.113811767578126,-0.272751122713089,-0.4328740537166595,0.0739909932017326,5.605294189453126
1765999689233589800,14.13258984375,-0.3164279460906982,-0.3979020416736603,0.06146826967597,5.624072265625001
1765999689252368100,14.1513681640625,-0.3703367710113525,-0.3734674453735351,0.0646753087639808,5.6428505859375
1765999689271146200,14.170146240234375,-0.4011854529380798,-0.3467421233654022,0.0901789143681526,5.661628662109376
1765999689289924600,14.188924560546877,-0.4257727563381195,-0.3446041047573089,0.1158352345228195,5.680406982421877
1765999689308702700,14.20770263671875,-0.4680751264095306,-0.377285361289978,0.1289688199758529,5.69918505859375
1765999689327481000,14.226481201171875,-0.5079340934753418,-0.3959167301654815,0.1477529257535934,5.7179636230468756
1765999689346259200,14.24525927734375,-0.5367974042892456,-0.3406334817409515,0.1796706020832061,5.736741699218751
1765999689365037600,14.26403759765625,-0.5584831237792969,-0.2549596726894378,0.210671991109848,5.75552001953125
1765999689383815700,14.282815673828123,-0.5699368119239807,-0.2265544682741165,0.2404516488313675,5.774298095703124
1765999689402594000,14.301593994140624,-0.5687150955200195,-0.2577085793018341,0.2584721744060516,5.793076416015625
1765999689421372400,14.320372314453126,-0.5615374445915222,-0.3116174042224884,0.2629009187221527,5.811854736328126
1765999689440150500,14.339150634765623,-0.5610793232917786,-0.3739255964756012,0.2570977210998535,5.8306330566406235
1765999689458929000,14.357928955078124,-0.5473348498344421,-0.4231002032756805,0.267024278640747,5.849411376953125
1765999689477707000,14.37670703125,-0.5190823674201965,-0.4673879146575928,0.2975675165653229,5.868189453125
1765999689496485400,14.3954853515625,-0.4783071279525757,-0.5562687516212463,0.3198640644550323,5.886967773437501
1765999689515263500,14.414263427734374,-0.3962985277175903,-0.6303361058235168,0.3102429509162903,5.905745849609374
1765999689534041900,14.433041748046875,-0.2803869247436523,-0.6098721027374268,0.279394268989563,5.924524169921876
1765999689552820000,14.451820068359376,-0.141262486577034,-0.5903244614601135,0.2781725525856018,5.943302490234377
1765999689571598300,14.470598388671876,0.0097738364711403,-0.5243510603904724,0.298789232969284,5.962080810546876
1765999689590376400,14.48937646484375,0.2292270064353943,-0.5744419693946838,0.3959167301654815,5.9808588867187495
1765999689609154800,14.50815478515625,0.4894554018974304,-0.9699769020080566,0.5177842378616333,5.999637207031251
1765999689637322200,14.536322265625,1.165988206863403,-2.163606643676758,0.6787471175193787,6.0278046875
1765999689656100400,14.555100341796877,1.56350839138031,-2.9195518493652344,0.931950569152832,6.046582763671877
1765999689674878700,14.573878662109376,1.5752675533294678,-3.287750482559204,1.3630683422088623,6.065361083984376
1765999689693656800,14.59265673828125,1.515860915184021,-2.7628650665283203,1.7615050077438354,6.08413916015625
1765999689712435200,14.611435302734376,1.488066554069519,-1.448742151260376,2.1232895851135254,6.102917724609377
1765999689731213600,14.630213623046876,1.4369066953659058,-0.4240165054798126,2.407647132873535,6.121696044921876
1765999689749991700,14.64899169921875,1.4474440813064575,-0.0235946513712406,2.590295791625977,6.1404741210937495
1765999689768770000,14.66777001953125,1.4828742742538452,-0.124845489859581,2.668486356735229,6.159252441406251
1765999689787548200,14.686548095703126,1.508530616760254,-0.5477166175842285,2.6493968963623047,6.178030517578126
