time,seconds_elapsed,z,y,x,t
1765999688714840800,13.6138408203125,-0.8271826505661011,0.3994836807250976,0.1710249930620193,5.12644873046875
1765999688733619200,13.632619140625,-0.5112251043319702,-0.5337409973144531,0.5705194473266602,5.14522705078125
1765999688752397300,13.651397216796877,0.0158321857452392,-0.0523929595947265,0.7294604778289795,5.164005126953127
1765999688780564700,13.679564697265626,0.0449132919311523,0.7156829833984375,0.5764031410217285,5.192172607421876
1765999688799342800,13.6983427734375,-0.0253364443778991,0.3171606063842773,0.4800633192062378,5.210950683593749
1765999688818121200,13.717121337890624,-0.0545538067817688,-0.1124286651611328,0.5978881120681763,5.2297292480468744
1765999688836899300,13.7358994140625,-0.0716114044189453,-0.2388782501220703,0.4910939633846283,5.24850732421875
1765999688855677700,13.754677734375,0.0622979402542114,-0.1292238235473632,0.146004244685173,5.267285644531251
1765999688874455800,13.773455810546874,0.311617761850357,-0.0497350692749023,0.0753072649240493,5.286063720703124
1765999688893234200,13.792234130859375,0.7537637948989868,-0.1609086990356445,0.1001238971948623,5.304842041015625
1765999688912012300,13.81101220703125,0.8242873549461365,-0.2072458267211914,-0.0199718251824378,5.323620117187501
1765999688930790700,13.829790771484374,0.9651027917861938,-0.2190084457397461,-0.3841712474822998,5.342398681640624
1765999688949568800,13.84856884765625,0.920192003250122,-0.1523504257202148,-0.4750086367130279,5.361176757812499
1765999688968347100,13.86734716796875,0.6586225032806396,-0.0363636016845703,-0.2103544473648071,5.3799550781250005
1765999688987125500,13.88612548828125,0.6090365648269653,-0.065709114074707,0.0365022495388984,5.3987333984375
1765999689005903600,13.904903564453123,0.4610585272312164,-0.051161766052246,0.1414875984191894,5.417511474609373
1765999689024681700,13.923681640625,0.4136930704116821,-0.014662742614746,0.0478904992341995,5.43628955078125
1765999689043460000,13.942460205078126,0.3493986129760742,-0.0141229629516601,0.0955810323357582,5.455068115234376
1765999689062238500,13.961238525390623,0.4014979898929596,-0.0707216262817382,0.2031697481870651,5.473846435546873
1765999689081016600,13.9800166015625,0.4308435618877411,-0.0489349365234375,0.4196443557739258,5.49262451171875
1765999689099794700,13.998794677734375,0.389744222164154,0.1176662445068359,0.3315404951572418,5.511402587890625
1765999689118573000,14.017572998046877,0.4017676413059234,0.1719779968261718,-0.4577756822109222,5.530180908203127
1765999689137351400,14.036351318359374,0.6605967283248901,0.0677490234375,-0.585300624370575,5.548959228515624
1765999689156129500,14.055129638671875,0.5724073648452759,-0.0610427856445312,0.2513847053050995,5.567737548828125
1765999689174908000,14.073907958984377,0.2348743975162506,-0.1637773513793945,1.1801940202713013,5.5865158691406265
1765999689193686000,14.09268603515625,-0.1454905122518539,-0.1109323501586914,1.3718678951263428,5.6052939453125
1765999689212464400,14.11146435546875,-0.285135805606842,-0.0593137741088867,1.117504000663757,5.624072265624999
1765999689231242500,14.130242431640625,-0.182121992111206,-0.0498647689819335,0.6502033472061157,5.6428503417968745
1765999689250020900,14.149020751953126,0.267162412405014,-0.0525751113891601,0.703860342502594,5.661628662109376
1765999689268799000,14.167799072265623,0.5416370034217834,-0.1214399337768554,0.8714838027954102,5.680406982421873
1765999689287577300,14.186577392578124,0.5717717409133911,-0.0424661636352539,0.689708411693573,5.699185302734374
1765999689306355500,14.20535546875,0.4028250575065613,0.1226387023925781,0.4500913619995117,5.71796337890625
1765999689325133800,14.2241337890625,0.4337695240974426,0.0281600952148437,0.5129584670066833,5.736741699218751
1765999689343912000,14.242911865234374,0.4840066730976105,-0.0059795379638671,0.8012592792510986,5.755519775390624
1765999689362690300,14.261690185546875,0.5421020984649658,0.0594749450683593,0.7786779403686523,5.774298095703125
1765999689381468400,14.280468505859377,0.585629940032959,0.0134363174438476,0.4584659934043884,5.7930764160156265
1765999689400246800,14.299246826171874,0.4240820109844208,-0.0612134933471679,-0.003039538860321,5.811854736328124
1765999689419025000,14.31802490234375,0.1943534165620803,-0.1014184951782226,-0.4344478249549866,5.830632812499999
1765999689437803300,14.33680322265625,-0.010985255241394,-0.162602424621582,-0.459617018699646,5.8494111328125005
1765999689456581600,14.35558154296875,-0.0965441465377807,-0.1410999298095703,-0.2283308506011963,5.868189453125
1765999689475359700,14.37435986328125,0.030960589647293,-0.0061588287353515,-0.1265958547592163,5.886967773437499
1765999689494138000,14.39313818359375,0.0109564065933227,0.4929428100585937,-0.078493595123291,5.90574609375
1765999689512916200,14.411916259765626,-0.2904481887817383,1.060380935668945,-0.2050635814666748,5.924524169921876
1765999689531694600,14.430694580078123,-0.787893533706665,1.4396228790283203,-0.5919489860534668,5.943302490234373
1765999689550472700,14.44947265625,-0.5898014307022095,1.577620506286621,-1.396364688873291,5.96208056640625
1765999689569251000,14.4682509765625,-0.3096243143081665,1.721517562866211,-2.548488140106201,5.9808588867187495
1765999689588029200,14.487029296875,0.4263534843921661,2.0684289932250977,-3.1798224449157715,5.999637207031251
1765999689606807600,14.5058076171875,0.5487430095672607,1.7326631546020508,-2.6688365936279297,6.01841552734375
1765999689625585700,14.524585693359375,-0.1020527482032775,1.1115493774414062,-3.550325393676758,6.037193603515625
1765999689644364000,14.543364013671876,-0.3967348337173462,0.6637763977050781,-5.012972354888916,6.055971923828126
1765999689663142100,14.56214208984375,0.282766580581665,-0.8073787689208984,-3.6351237297058105,6.07475
1765999689691309600,14.5903095703125,-1.347662329673767,-2.6089773178100586,0.7158582806587219,6.102917480468751
1765999689710088000,14.609087890625,-1.726016402244568,-1.7263479232788086,1.364881992340088,6.12169580078125
1765999689728866000,14.627865966796875,-1.4207425117492676,-1.324665069580078,2.257606267929077,6.140473876953125
1765999689747644400,14.64664453125,-0.9266996383666992,-1.1540851593017578,0.5342494249343872,6.159252441406251
1765999689766422800,14.6654228515625,-0.6188082695007324,-0.5933570861816406,-2.13071084022522,6.17803076171875
1765999689785201000,14.684200927734375,-0.6998059749603271,-0.3820142745971679,-3.38576340675354,6.196808837890625
1765999689803979300,14.702979248046876,-0.4490785598754883,-0.7710075378417969,-2.38338565826416,6.215587158203126
1765999689822757400,14.72175732421875,-0.1514039039611816,-1.3148918151855469,-0.2978218495845794,6.234365234375
1765999689841535700,14.74053564453125,0.1762919425964355,-1.7092399597167969,1.482450008392334,6.253143554687499
1765999689860313900,14.75931396484375,0.3226509094238281,-1.955561637878418,2.416733980178833,6.271921875
1765999689879092200,14.77809228515625,0.6931815147399902,-2.0119690895080566,2.1225790977478027,6.2907001953125
1765999689897870300,14.796870361328123,1.3819842338562012,-1.4545536041259766,1.50936758518219,6.309478271484373
1765999689916648700,14.815648681640624,2.1346514225006104,-0.2720551490783691,1.2201684713363647,6.328256591796874
1765999689935427000,14.834427001953124,2.737579107284546,0.8912792205810547,0.818385124206543,6.347034912109374
1765999689954205200,14.853205078125,2.941476583480835,2.0652894973754883,0.4141511917114258,6.365812988281251
1765999689972983600,14.871983642578124,2.7661495208740234,3.491877555847168,-0.4192895889282226,6.384591552734374
1765999689991761700,14.89076171875,3.1024951934814453,4.322762489318848,-1.4365413188934326,6.403369628906249
1765999690010540000,14.9095400390625,3.733104705810547,4.129079341888428,-1.9731698036193848,6.4221479492187505
1765999690029318100,14.928318115234376,3.985628128051758,3.7867355346679688,-1.414717674255371,6.440926025390626
1765999690048096500,14.947096435546875,3.632303237915039,3.8546066284179688,-0.6691602468490601,6.459704345703125
1765999690066875000,14.965875,3.2557804584503174,3.747591018676758,0.1474590301513672,6.47848291015625
1765999690085653000,14.984653076171876,2.364952564239502,3.554795265197754,0.9321134090423584,6.497260986328126
1765999690104431400,15.003431396484377,1.2695496082305908,3.1418685913085938,1.1092206239700315,6.516039306640627
1765999690123209500,15.02220947265625,-0.0724141597747802,2.642399787902832,0.8630502223968506,6.5348173828125
1765999690141987800,15.04098779296875,-0.3255758285522461,1.8683080673217771,0.6821911334991455,6.553595703125
1765999690160766000,15.059765869140625,-0.7780975103378296,0.974461555480957,0.9153730869293212,6.572373779296875
1765999690179544300,15.07854443359375,-1.283625602722168,0.5221891403198242,0.7691464424133301,6.59115234375
1765999690198322700,15.09732275390625,-6.740714550018311,-2.370079040527344,1.0703942775726318,6.6099306640624995
1765999690217100800,15.116100830078125,-1.0216201543807983,-4.596831798553467,-0.8373973369598389,6.628708740234375
1765999690235879200,15.134879150390624,-4.111731052398682,9.10382080078125,-2.1322736740112305,6.647487060546874
1765999690254657300,15.1536572265625,-0.996800184249878,-0.7366170883178711,1.745194911956787,6.666265136718749
1765999690273435600,15.172435546875,-1.3014591932296753,-3.889394760131836,-3.140068531036377,6.6850434570312505
1765999690292213800,15.1912138671875,-0.7646563053131104,2.970822334289551,-6.03795051574707,6.70382177734375
1765999690310992100,15.2099921875,-1.7900233268737793,1.8700647354125977,-2.4841127395629883,6.722600097656249
1765999690329770500,15.2287705078125,-2.2065749168396,-1.9156608581542969,-1.6862590312957764,6.74137841796875
1765999690348548600,15.247548583984376,-2.247098445892334,-1.4376230239868164,-1.7967665195465088,6.760156494140626
1765999690367327000,15.266326904296877,-2.5942769050598145,-0.5562410354614258,-1.8244467973709104,6.778934814453127
1765999690386105000,15.28510498046875,-2.954243421554565,-1.3677854537963867,-1.3487937450408936,6.797712890625
1765999690404883500,15.303883544921876,-2.859412670135498,-2.0116405487060547,-1.4431763887405396,6.8164914550781255
1765999690433051000,15.33205078125,-2.7145557403564453,-1.7422609329223633,-1.5101690292358398,6.84465869140625
1765999690451829200,15.350829345703126,-2.729888439178467,-1.9610891342163088,-1.5774664878845217,6.863437255859376
1765999690470607400,15.369607421875,-2.563816547393799,-2.2943992614746094,-1.483994483947754,6.882215332031249
1765999690489385700,15.3883857421875,-2.4214932918548584,-2.173215866088867,-1.3906185626983645,6.90099365234375
1765999690508163800,15.407163818359376,-2.304282188415528,-1.9806160926818848,-1.06427800655365,6.9197717285156255
1765999690526942200,15.425942138671877,-2.518468379974365,-1.8285245895385744,-0.7571064233779907,6.938550048828127
1765999690545720300,15.44472021484375,-2.7699594497680664,-1.5306057929992676,-0.8829131722450256,6.957328125
1765999690564498700,15.463498779296875,-2.611967802047729,-1.3399543762207031,-0.9345204830169678,6.976106689453125
1765999690583277000,15.482277099609377,-2.2634897232055664,-1.2950754165649414,-0.7214516997337341,6.9948850097656265
1765999690602055200,15.50105517578125,-2.3205971717834477,-0.6405982971191406,-1.085289478302002,7.0136630859375
1765999690620833500,15.51983349609375,-1.8905022144317627,0.4401826858520508,-2.1498947143554688,7.032441406249999
1765999690639611600,15.538611572265625,-1.0922589302062988,0.8759269714355469,-2.6315603256225586,7.051219482421875
1765999690658390000,15.55739013671875,-0.854719877243042,0.8277416229248047,-2.120300769805908,7.069998046875
1765999690686557400,15.585557373046877,-0.3815739154815674,1.509718894958496,-1.5755527019500732,7.098165283203127
1765999690705335800,15.604335693359374,0.200071096420288,1.6341276168823242,-0.8169965147972107,7.116943603515624
1765999690724114000,15.623114013671875,0.266059398651123,1.1967658996582031,0.0104162693023681,7.135721923828125
1765999690742892300,15.641892333984377,-0.1726865768432617,0.7900171279907227,0.9328205585479736,7.1545002441406265
