time,seconds_elapsed,z,y,x,t
1765999694836560000,19.73555981445313,-0.0427644252777099,0.6439590454101562,-0.1082534193992614,11.248167724609381
1765999694855338200,19.754338134765625,-0.0707662105560302,0.4935817718505859,0.4057201743125915,11.266946044921877
1765999694874116400,19.773116455078124,0.101839542388916,0.496983528137207,0.9900525808334352,11.285724365234376
1765999694892894700,19.791894775390624,0.2634251117706299,0.2388076782226562,1.649016261100769,11.304502685546876
1765999694911673000,19.810673095703127,-0.1428055763244629,-0.183023452758789,1.7312003374099731,11.323281005859378
1765999694930451500,19.829451416015623,-1.318802833557129,0.4122161865234375,0.7743885517120361,11.342059326171874
1765999694949229800,19.848229736328125,2.507455825805664,2.959965705871582,0.2139558792114257,11.360837646484377
1765999694968008000,19.867008056640625,4.313794136047363,4.995939254760742,0.3608416318893432,11.379615966796877
1765999694986786300,19.885786376953124,6.002765655517578,4.853787422180176,-0.5890557765960693,11.398394287109376
1765999695005564700,19.904564697265624,5.7413201332092285,4.244898796081543,-3.404968023300171,11.417172607421875
1765999695024343000,19.923343017578127,2.606856107711792,2.6359806060791016,-5.075122833251953,11.435950927734378
1765999695043121200,19.94212109375,-0.0469787120819091,0.3745536804199219,-2.100987434387207,11.454729003906252
1765999695061899500,19.9608994140625,-0.91765296459198,-0.80352783203125,-0.0635237395763397,11.473507324218751
1765999695080678000,19.979677978515625,-0.0561717748641967,-1.37255859375,1.2579878568649292,11.492285888671876
1765999695099456300,19.998456298828124,0.4573667049407959,-0.8562850952148438,1.2868720293045044,11.511064208984376
1765999695118234600,20.017234619140623,0.4033628702163696,-0.2879209518432617,0.943806767463684,11.529842529296875
1765999695137012700,20.0360126953125,-0.2606569528579712,-0.4845924377441406,0.944956600666046,11.548620605468752
1765999695155791000,20.054791015625,-0.4939969778060913,-0.6014442443847656,0.8108420968055725,11.567398925781252
1765999695174569500,20.073569580078125,-0.3736535310745239,-0.3329305648803711,0.8564214110374451,11.586177490234377
1765999695193347800,20.092347900390624,-0.0887911319732666,0.1937894821166992,0.7966317534446716,11.604955810546876
1765999695212126200,20.111126220703124,-0.0086215734481811,0.5638675689697266,0.6656684279441833,11.623734130859376
1765999695230904300,20.129904296875,-0.1481943130493164,0.3922872543334961,0.4319224953651428,11.642512207031253
1765999695249682700,20.1486826171875,-0.6349459886550903,0.174814224243164,0.0768284052610397,11.661290527343752
1765999695268461000,20.1674609375,-0.9935096502304076,0.0538873672485351,0.0555558502674102,11.680068847656251
1765999695287239400,20.186239501953125,-1.3389018774032593,-0.0645580291748046,0.3191013932228088,11.698847412109377
1765999695306017800,20.205017822265624,-1.4546113014221191,-0.1494655609130859,0.5067023038864136,11.717625732421876
1765999695324796000,20.2237958984375,-1.2581806182861328,-0.1291284561157226,0.2486898452043533,11.736403808593753
1765999695343574300,20.24257421875,-0.5698674917221069,-0.1845531463623047,-0.0904557704925537,11.755182128906252
1765999695362352600,20.2613525390625,0.4997621178627014,-0.3752021789550781,-0.6917170286178589,11.773960449218752
1765999695381131000,20.280131103515625,1.4277446269989014,0.0671949386596679,-1.347411870956421,11.792739013671877
1765999695399909400,20.298909423828125,1.935525059700012,0.6337471008300781,-1.50229811668396,11.811517333984376
1765999695418687700,20.317687744140624,2.4453845024108887,0.4561996459960937,-1.4600884914398191,11.830295654296876
1765999695437465900,20.3364658203125,3.5038397312164307,0.2881937026977539,-2.139645338058472,11.849073730468753
1765999695456244200,20.355244140625,5.336881160736084,0.3983287811279297,-3.5078933238983154,11.867852050781252
1765999695475022600,20.37402270507813,7.356486797332764,0.158635139465332,-4.738885402679443,11.886630615234381
1765999695493801000,20.392801025390625,7.567865371704102,0.2116079330444336,-5.452194213867188,11.905408935546877
1765999695512579300,20.411579345703124,4.8167877197265625,1.1370954513549805,-5.094209671020508,11.924187255859376
1765999695531357400,20.430357421875,4.433838367462158,2.105191230773926,-1.7251278162002563,11.942965332031253
1765999695550135800,20.4491357421875,2.162355661392212,4.342373847961426,2.873898267745972,11.961743652343753
1765999695568914200,20.4679140625,0.7792788147926331,6.694143295288086,5.159654140472412,11.980521972656252
1765999695587692500,20.48669262695313,1.5568556785583496,5.841916084289551,4.770294666290283,11.99930053710938
1765999695606471000,20.505470947265625,1.0598620176315308,3.623235702514648,1.4985439777374268,12.018078857421877
1765999695625249000,20.5242490234375,1.0776376724243164,3.3013181686401367,-2.7585620880126958,12.03685693359375
1765999695653416700,20.552416748046877,-0.7146937847137451,1.108271598815918,-0.5197953581809998,12.065024658203129
1765999695672195000,20.571195068359376,-9.939900398254396,-3.486847400665283,1.9795069694519043,12.083802978515628
1765999695690973200,20.58997314453125,-2.372856616973877,-0.4102210998535156,-3.317202091217041,12.102581054687501
1765999695709751600,20.60875146484375,-2.869359016418457,7.922938346862793,4.854124069213867,12.121359375
1765999695728530000,20.627530029296874,-1.3761279582977295,-1.8538827896118164,13.183335304260254,12.140137939453126
1765999695747308300,20.64630834960937,0.4166944026947021,-4.622262001037598,8.538830757141113,12.158916259765622
1765999695766086700,20.66508666992188,-1.2523212432861328,-0.1238479614257812,2.432096481323242,12.177694580078132
1765999695784865000,20.683864990234376,-2.063461303710937,1.258321762084961,-4.261544227600098,12.196472900390628
1765999695803643100,20.70264306640625,-3.007115364074707,-1.0860862731933594,-8.130706787109375,12.215250976562501
1765999695822421500,20.72142138671875,-4.08409595489502,-3.338010787963867,-7.62090539932251,12.234029296875
1765999695841199900,20.740199951171878,-4.37347412109375,-3.56919527053833,-1.8212913274765012,12.25280786132813
1765999695859978200,20.758978271484374,-4.554978370666504,-2.952694892883301,2.3139994144439697,12.271586181640625
1765999695878756400,20.77775634765625,-5.011783599853516,-2.45487117767334,2.0015523433685303,12.290364257812502
1765999695897534700,20.79653466796875,-4.703807353973389,-2.8158860206604004,-0.0080211162567138,12.309142578125002
1765999695916313000,20.81531298828125,-4.323023796081543,-2.785580635070801,-1.9149173498153689,12.327920898437501
1765999695935091500,20.83409155273437,-4.070516109466553,-2.44350528717041,-2.97812557220459,12.346699462890623
1765999695953869800,20.852869873046878,-4.187424182891846,-2.18200159072876,-2.3659181594848637,12.36547778320313
1765999695972648200,20.871648193359373,-4.422798156738281,-2.480081558227539,-0.9792353510856628,12.384256103515625
1765999695991426300,20.89042626953125,-4.430607795715332,-2.8922905921936035,0.0787256360054016,12.403034179687502
1765999696010204700,20.90920458984375,-4.251190662384033,-2.6160154342651367,0.3993725776672363,12.421812500000001
1765999696028983000,20.927983154296875,-3.837415218353272,-1.678983211517334,-0.4623333215713501,12.440591064453127
1765999696047761400,20.94676147460937,-3.034873008728028,-0.8731393814086914,-1.131117820739746,12.459369384765623
1765999696066539800,20.965539794921877,-2.777616500854492,-0.72412109375,-1.5293687582015991,12.478147705078129
1765999696094707200,20.993707275390623,-2.342250347137451,-0.8642759323120117,-1.20848286151886,12.506315185546875
1765999696113485600,21.01248559570313,-2.44095230102539,-0.5888824462890625,-0.7047045230865479,12.525093505859381
1765999696132264000,21.031263916015625,-2.546860694885254,-0.0775165557861328,-0.4845183491706848,12.543871826171877
1765999696151042300,21.050042236328125,-2.602306842803955,0.1453380584716797,-0.3413154482841491,12.562650146484376
1765999696169820400,21.0688203125,-2.3572511672973637,0.0932474136352539,-0.1691979169845581,12.581428222656253
1765999696188598800,21.087598876953123,-2.110323905944824,0.2718620300292969,-0.2742722630500793,12.600206787109375
1765999696207377200,21.106377197265623,-1.993525981903076,0.7310495376586914,-0.6065281629562378,12.618985107421874
1765999696226155500,21.12515551757813,-1.0887188911437988,1.8833608627319336,-1.0679938793182373,12.63776342773438
1765999696244934000,21.143933837890625,-0.3380300998687744,2.727128028869629,-1.350532054901123,12.656541748046877
1765999696263712300,21.162712158203124,0.2122602462768554,2.237614631652832,-1.0479786396026611,12.675320068359376
1765999696282490400,21.181490478515624,0.3564236164093017,1.265864372253418,-0.4564545750617981,12.694098388671875
1765999696301268700,21.200268798828127,-0.1084518432617187,0.3526763916015625,0.3625967502593994,12.712876708984378
1765999696320047000,21.219047119140622,-1.835012435913086,0.4264860153198242,0.9660017490386964,12.731655029296874
1765999696338825500,21.237825439453125,4.442748069763184,4.575701713562012,3.1980197429656982,12.750433349609377
1765999696357603800,21.256603759765625,7.297357559204102,6.660805702209473,6.29243803024292,12.769211669921877
1765999696376382200,21.27538232421875,9.407946586608888,7.792485237121582,3.4020493030548096,12.787990234375002
1765999696395160300,21.294160400390624,8.875846862792969,6.82103157043457,-2.5324764251708984,12.806768310546875
1765999696413938700,21.312938720703126,2.0237009525299072,2.912917137145996,-6.690638542175293,12.825546630859378
1765999696432717000,21.331717041015622,-3.029857397079468,-1.0539188385009766,-5.131547451019287,12.844324951171874
1765999696460884500,21.35988452148437,-2.654625654220581,-1.6023941040039062,1.2112864255905151,12.872492431640623
1765999696479662800,21.378662841796874,-0.4331790208816528,-0.9765777587890624,3.237915515899658,12.891270751953126
1765999696498441200,21.397441162109374,0.6134264469146729,-0.6481409072875977,2.250124454498291,12.910049072265625
1765999696517219600,21.41621948242188,0.4828383922576904,-0.1879377365112304,1.1699212789535522,12.928827392578132
1765999696535998000,21.434998046875,-0.0143221616744995,0.0125532150268554,0.5444420576095581,12.94760595703125
1765999696554776300,21.4537763671875,0.1532795429229736,0.3266744613647461,-0.4281086921691894,12.966384277343753
1765999696573554400,21.47255444335937,0.2748066186904907,0.7273759841918945,-0.6146864295005798,12.985162353515623
1765999696592333000,21.4913330078125,0.2195689082145691,0.6322126388549805,0.0510787814855575,13.003940917968752
1765999696611111200,21.510111083984373,0.4969194233417511,0.3503284454345703,0.6196351647377014,13.022718994140625
1765999696629889500,21.5288896484375,0.3327083885669708,0.2957010269165039,0.7120327949523926,13.04149755859375
1765999696648668000,21.54766796875,0.398246705532074,0.2281513214111328,-0.0825732350349426,13.060275878906253
1765999696667446300,21.5664462890625,0.5389386415481567,0.1185636520385742,-1.0815649032592771,13.079054199218753
1765999696686224600,21.585224609375,1.1866523027420044,0.138981819152832,-1.951690435409546,13.097832519531252
1765999696705003000,21.6040029296875,2.6327805519104004,0.1002159118652343,-2.7495577335357666,13.116610839843752
1765999696723781000,21.622781005859373,4.4035964012146,-0.0100564956665039,-3.598662853240967,13.135388916015625
1765999696742559500,21.6415595703125,5.779085159301758,-0.1695795059204101,-4.540680408477783,13.15416748046875
1765999696761337900,21.660337890625,6.047632217407227,-0.2673044204711914,-4.766889572143555,13.172945800781253
1765999696780116200,21.6791162109375,5.011219501495361,-0.0796585083007812,-4.3024210929870605,13.191724121093753
1765999696798894600,21.69789453125,3.262347221374512,0.2464094161987304,-3.3062846660614014,13.210502441406252
1765999696817673000,21.7166728515625,1.0778529644012451,0.6634922027587891,-1.8338385820388796,13.229280761718751
1765999696836451300,21.735451416015625,-0.8453291654586792,1.1178131103515625,0.0444372780621051,13.248059326171877
1765999696855229400,21.7542294921875,-1.5531606674194336,1.1836481094360352,2.076843023300171,13.26683740234375
