time,seconds_elapsed,z,y,x,t
1765999689728866000,14.627865966796875,-1.4207425117492676,-1.324665069580078,2.257606267929077,6.140473876953125
1765999689747644400,14.64664453125,-0.9266996383666992,-1.1540851593017578,0.5342494249343872,6.159252441406251
1765999689766422800,14.6654228515625,-0.6188082695007324,-0.5933570861816406,-2.13071084022522,6.17803076171875
1765999689785201000,14.684200927734375,-0.6998059749603271,-0.3820142745971679,-3.38576340675354,6.196808837890625
1765999689803979300,14.702979248046876,-0.4490785598754883,-0.7710075378417969,-2.38338565826416,6.215587158203126
1765999689822757400,14.72175732421875,-0.1514039039611816,-1.3148918151855469,-0.2978218495845794,6.234365234375
1765999689841535700,14.74053564453125,0.1762919425964355,-1.7092399597167969,1.482450008392334,6.253143554687499
1765999689860313900,14.75931396484375,0.3226509094238281,-1.955561637878418,2.416733980178833,6.271921875
1765999689879092200,14.77809228515625,0.6931815147399902,-2.0119690895080566,2.1225790977478027,6.2907001953125
1765999689897870300,14.796870361328123,1.3819842338562012,-1.4545536041259766,1.50936758518219,6.309478271484373
1765999689916648700,14.815648681640624,2.1346514225006104,-0.2720551490783691,1.2201684713363647,6.328256591796874
1765999689935427000,14.834427001953124,2.737579107284546,0.8912792205810547,0.818385124206543,6.347034912109374
1765999689954205200,14.853205078125,2.941476583480835,2.0652894973754883,0.4141511917114258,6.365812988281251
1765999689972983600,14.871983642578124,2.7661495208740234,3.491877555847168,-0.4192895889282226,6.384591552734374
1765999689991761700,14.89076171875,3.1024951934814453,4.322762489318848,-1.4365413188934326,6.403369628906249
1765999690010540000,14.9095400390625,3.733104705810547,4.129079341888428,-1.9731698036193848,6.4221479492187505
1765999690029318100,14.928318115234376,3.985628128051758,3.7867355346679688,-1.414717674255371,6.440926025390626
1765999690048096500,14.947096435546875,3.632303237915039,3.8546066284179688,-0.6691602468490601,6.459704345703125
1765999690066875000,14.965875,3.2557804584503174,3.747591018676758,0.1474590301513672,6.47848291015625
1765999690085653000,14.984653076171876,2.364952564239502,3.554795265197754,0.9321134090423584,6.497260986328126
1765999690104431400,15.003431396484377,1.2695496082305908,3.1418685913085938,1.1092206239700315,6.516039306640627
1765999690123209500,15.02220947265625,-0.0724141597747802,2.642399787902832,0.8630502223968506,6.5348173828125
1765999690141987800,15.04098779296875,-0.3255758285522461,1.8683080673217771,0.6821911334991455,6.553595703125
1765999690160766000,15.059765869140625,-0.7780975103378296,0.974461555480957,0.9153730869293212,6.572373779296875
1765999690179544300,15.07854443359375,-1.283625602722168,0.5221891403198242,0.7691464424133301,6.59115234375
1765999690198322700,15.09732275390625,-6.740714550018311,-2.370079040527344,1.0703942775726318,6.6099306640624995
1765999690217100800,15.116100830078125,-1.0216201543807983,-4.596831798553467,-0.8373973369598389,6.628708740234375
1765999690235879200,15.134879150390624,-4.111731052398682,9.10382080078125,-2.1322736740112305,6.647487060546874
1765999690254657300,15.1536572265625,-0.996800184249878,-0.7366170883178711,1.745194911956787,6.666265136718749
1765999690273435600,15.172435546875,-1.3014591932296753,-3.889394760131836,-3.140068531036377,6.6850434570312505
1765999690292213800,15.1912138671875,-0.7646563053131104,2.970822334289551,-6.03795051574707,6.70382177734375
1765999690310992100,15.2099921875,-1.7900233268737793,1.8700647354125977,-2.4841127395629883,6.722600097656249
1765999690329770500,15.2287705078125,-2.2065749168396,-1.9156608581542969,-1.6862590312957764,6.74137841796875
1765999690348548600,15.247548583984376,-2.247098445892334,-1.4376230239868164,-1.7967665195465088,6.760156494140626
1765999690367327000,15.266326904296877,-2.5942769050598145,-0.5562410354614258,-1.8244467973709104,6.778934814453127
1765999690386105000,15.28510498046875,-2.954243421554565,-1.3677854537963867,-1.3487937450408936,6.797712890625
1765999690404883500,15.303883544921876,-2.859412670135498,-2.0116405487060547,-1.4431763887405396,6.8164914550781255
1765999690433051000,15.33205078125,-2.7145557403564453,-1.7422609329223633,-1.5101690292358398,6.84465869140625
1765999690451829200,15.350829345703126,-2.729888439178467,-1.9610891342163088,-1.5774664878845217,6.863437255859376
1765999690470607400,15.369607421875,-2.563816547393799,-2.2943992614746094,-1.483994483947754,6.882215332031249
1765999690489385700,15.3883857421875,-2.4214932918548584,-2.173215866088867,-1.3906185626983645,6.90099365234375
1765999690508163800,15.407163818359376,-2.304282188415528,-1.9806160926818848,-1.06427800655365,6.9197717285156255
1765999690526942200,15.425942138671877,-2.518468379974365,-1.8285245895385744,-0.7571064233779907,6.938550048828127
1765999690545720300,15.44472021484375,-2.7699594497680664,-1.5306057929992676,-0.8829131722450256,6.957328125
1765999690564498700,15.463498779296875,-2.611967802047729,-1.3399543762207031,-0.9345204830169678,6.976106689453125
1765999690583277000,15.482277099609377,-2.2634897232055664,-1.2950754165649414,-0.7214516997337341,6.9948850097656265
1765999690602055200,15.50105517578125,-2.3205971717834477,-0.6405982971191406,-1.085289478302002,7.0136630859375
1765999690620833500,15.51983349609375,-1.8905022144317627,0.4401826858520508,-2.1498947143554688,7.032441406249999
1765999690639611600,15.538611572265625,-1.0922589302062988,0.8759269714355469,-2.6315603256225586,7.051219482421875
1765999690658390000,15.55739013671875,-0.854719877243042,0.8277416229248047,-2.120300769805908,7.069998046875
1765999690686557400,15.585557373046877,-0.3815739154815674,1.509718894958496,-1.5755527019500732,7.098165283203127
1765999690705335800,15.604335693359374,0.200071096420288,1.6341276168823242,-0.8169965147972107,7.116943603515624
1765999690724114000,15.623114013671875,0.266059398651123,1.1967658996582031,0.0104162693023681,7.135721923828125
1765999690742892300,15.641892333984377,-0.1726865768432617,0.7900171279907227,0.9328205585479736,7.1545002441406265
1765999690761670400,15.66067041015625,-0.4044699668884277,0.5274934768676758,1.6202964782714844,7.1732783203125
1765999690780448800,15.67944873046875,-0.6007289886474609,0.2951316833496094,1.87894070148468,7.192056640624999
1765999690799227100,15.69822705078125,-0.5208237171173096,0.4711952209472656,1.7239117622375488,7.2108349609375
1765999690818005200,15.717005126953126,0.7878339290618896,1.5927019119262695,0.9719327092170716,7.229613037109376
1765999690836783600,15.73578369140625,2.4462244510650635,2.991274833679199,-0.0623970031738281,7.248391601562499
1765999690855561700,15.754561767578124,3.195939540863037,3.101381301879883,-0.6622353196144104,7.267169677734374
1765999690874340000,15.773340087890626,4.066666603088379,2.996967315673828,-1.2740370035171509,7.2859479980468755
1765999690893118500,15.792118408203123,3.692169427871704,4.062753677368164,-3.3274917602539062,7.304726318359373
1765999690921286000,15.820285888671876,1.7042171955108645,3.1242780685424805,-1.6386008262634275,7.332893798828126
1765999690940064000,15.83906396484375,-0.3342490196228027,-0.5341281890869141,-0.2429222464561462,7.351671874999999
1765999690958842400,15.85784228515625,-1.1925277709960938,-2.363471984863281,-0.320730447769165,7.3704501953125
1765999690977620500,15.876620361328126,-0.8442859649658203,-1.9392814636230469,-1.127046823501587,7.3892282714843756
1765999690996398800,15.89539892578125,0.4936065673828125,0.0275564193725585,-1.4795432090759275,7.408006835937499
1765999691015177200,15.91417724609375,1.2118034362792969,1.3204364776611328,-0.3252034187316894,7.42678515625
1765999691033955300,15.932955322265624,1.4658211469650269,0.5821762084960938,0.5198925137519836,7.445563232421874
1765999691052733700,15.951733642578125,1.4725602865219116,-0.2636795043945312,0.5135470628738403,7.464341552734375
1765999691071512000,15.970511962890624,1.7577035427093506,-0.2057132720947265,0.4447448253631592,7.483119873046874
1765999691090290200,15.989290283203124,1.3802008628845217,0.2163267135620117,0.5838873982429504,7.501898193359374
1765999691109068500,16.008068603515625,0.7689353227615356,0.4501791000366211,0.6040459275245667,7.520676513671875
1765999691127847000,16.026846923828124,0.4103832244873047,0.3019580841064453,0.1426005363464355,7.539454833984374
1765999691146625000,16.045625,-0.6696121692657471,0.1134853363037109,0.3751093745231628,7.558232910156251
1765999691165403400,16.0644033203125,-1.374731421470642,-0.2272548675537109,1.0597031116485596,7.5770112304687505
1765999691184181800,16.083181640625,-1.183266282081604,-0.437408447265625,1.803797721862793,7.59578955078125
1765999691202960000,16.1019599609375,-0.8397579193115234,-0.1158647537231445,1.7481088638305664,7.614567871093749
1765999691221738200,16.12073828125,-0.2958136796951294,0.0780353546142578,0.8716273903846741,7.633346191406249
1765999691240516400,16.139516357421876,0.4332863688468933,-0.1470670700073242,0.0540611445903778,7.652124267578126
1765999691259294700,16.158294677734375,0.9075635075569152,-0.2789459228515625,-0.2129469215869903,7.670902587890625
1765999691278073000,16.177072998046874,1.407673954963684,-0.338902473449707,-0.4637272357940674,7.689680908203124
1765999691296851200,16.195851318359374,3.174668788909912,0.1212654113769531,-1.4656906127929688,7.708459228515624
1765999691325018600,16.2240185546875,8.450302124023438,0.4787836074829101,-4.116448879241943,7.736626464843752
1765999691343797000,16.242796875,12.896770477294922,0.258188247680664,-6.505888938903809,7.7554047851562515
1765999691362575400,16.261575439453125,13.03390884399414,0.8977365493774414,-7.94496488571167,7.774183349609377
1765999691381353500,16.280353515625,5.045347213745117,4.278192520141602,-7.084353923797607,7.79296142578125
1765999691400131800,16.2991318359375,-4.464001655578613,8.670214653015137,-6.135758876800537,7.811739746093753
1765999691418910000,16.317909912109375,-4.391403675079346,11.403284072875977,-4.884407043457031,7.830517822265627
1765999691437688300,16.336688232421874,-3.844008922576904,7.057629585266113,-3.462387561798096,7.849296142578126
1765999691456466700,16.355466796875,-3.996705055236816,0.3672876358032226,-3.927464008331299,7.868074707031251
1765999691475244800,16.374244873046877,-7.705042839050293,-4.0153584480285645,-2.928492784500122,7.886852783203128
1765999691494023200,16.393023193359376,-8.582390785217285,-9.0501070022583,-3.8967032432556152,7.905631103515628
1765999691512801500,16.411801513671875,-10.045465469360352,4.053322792053223,5.577696800231934,7.924409423828127
1765999691531579600,16.43057958984375,-0.7641641497612,-2.293842315673828,1.923439860343933,7.9431875000000005
1765999691550358000,16.44935791015625,-1.915536880493164,-7.260378837585449,7.474865913391113,7.961965820312503
1765999691569136400,16.468136474609373,-0.0011565387248992,-2.0785913467407227,-1.7308170795440674,7.980744384765625
1765999691587914500,16.48691455078125,-0.5941517353057861,0.8552885055541992,-4.511880874633789,7.999522460937502
1765999691616082000,16.51508203125,-1.1833899021148682,-4.390568733215332,-3.0841851234436035,8.027689941406251
1765999691634860300,16.5338603515625,-1.5149260759353638,-4.1274518966674805,-1.94870400428772,8.04646826171875
1765999691653638700,16.552638671875,-2.0430796146392822,-3.4948434829711914,-0.1655316352844238,8.06524658203125
1765999691672416800,16.571416748046875,-2.3157753944396973,-3.574582099914551,-0.3010423183441162,8.084024658203127
1765999691691195100,16.590195068359375,-2.216129302978516,-3.552511215209961,-1.1580989360809326,8.102802978515626
1765999691709973500,16.608973388671874,-2.001617908477783,-2.94150447845459,-1.8791160583496092,8.121581298828126
1765999691728751600,16.627751708984373,-2.004021167755127,-2.627788543701172,-1.756330966949463,8.140359619140625
1765999691747530000,16.646530029296876,-2.214792251586914,-2.930586338043213,-0.571786642074585,8.159137939453128
1765999691766308400,16.665308349609376,-2.307159423828125,-3.0171194076538086,0.5351138114929199,8.177916259765627
