time,seconds_elapsed,z,y,x,t
1766001865146249500,9.20324951171875,-0.4034761786460876,-0.3015381395816803,-2.420780658721924,7.137002929687501
1766001865165031000,9.222031005859376,-0.3002400398254394,-0.6575195789337158,-3.106171131134033,7.155784423828127
1766001865183812600,9.2408125,-0.4760163724422455,-1.1523200273513794,-3.962145328521729,7.174565917968751
1766001865202594300,9.25959423828125,-0.7026472091674805,-1.8674899339675903,-4.808956623077393,7.193347656250001
1766001865221375700,9.278375732421877,-0.9486730098724364,-2.879693031311035,-5.080791473388672,7.212129150390627
1766001865240157400,9.297157470703125,-0.5981893539428711,-2.3494622707366943,-3.88273286819458,7.230910888671875
1766001865258939000,9.31593896484375,0.1385135948657989,-0.9850957989692688,-2.084347009658813,7.249692382812501
1766001865277720600,9.334720458984377,0.1893680840730667,-0.492586076259613,-1.1298707723617554,7.268473876953127
1766001865296502300,9.353502197265623,0.1634063273668289,-0.4475347995758056,-0.0658970400691032,7.287255615234374
1766001865315283700,9.37228369140625,0.1517999023199081,-0.3319286406040191,0.4950295388698578,7.306037109375001
1766001865334065400,9.3910654296875,0.215482547879219,-0.275729089975357,0.6927970051765442,7.32481884765625
1766001865352847000,9.40984716796875,0.0071776611730456,0.2036470472812652,0.6220894455909729,7.3436005859375
1766001865371628500,9.428628662109375,-0.0332921296358108,0.1721875071525573,0.5324450135231018,7.362382080078126
1766001865390410200,9.44741015625,-0.0088575389236211,-0.0223729219287633,0.5103011727333069,7.38116357421875
1766001865409192000,9.46619189453125,-0.0256563201546669,0.231899544596672,0.557337760925293,7.3999453125
1766001865427973400,9.484973388671875,-0.0166460648179054,0.6767618060112,0.6872992515563965,7.418726806640626
1766001865446755000,9.503755126953124,-0.0351247265934944,0.9715040922164916,0.847956657409668,7.437508544921874
1766001865465536800,9.522536865234375,-0.0803287178277969,1.138575553894043,0.9466113448143004,7.456290283203126
1766001865484318200,9.541318115234375,-0.157755821943283,1.552283763885498,1.5096759796142578,7.475071533203126
1766001865503100000,9.560099853515624,-0.2541197538375854,2.5431063175201416,4.631500244140625,7.493853271484374
1766001865521881600,9.578881591796875,0.9104939699172974,4.048277378082275,3.692906618118286,7.512635009765626
1766001865540663000,9.5976630859375,0.4040870368480682,3.435885190963745,1.4441606998443604,7.53141650390625
1766001865559444700,9.61644482421875,-0.1026252806186676,-0.7224239706993103,1.2824342250823977,7.5501982421875
1766001865578226200,9.63522607421875,1.3631447553634644,-3.413435935974121,1.4261401891708374,7.5689794921875
1766001865597008000,9.6540078125,-0.7521272301673889,-1.860617756843567,0.7011964321136475,7.58776123046875
1766001865615789600,9.67278955078125,-0.1201876476407051,1.3963605165481567,-0.2902371287345886,7.60654296875
1766001865634571000,9.691571044921876,0.4292852282524109,0.2442695498466491,-0.9119447469711304,7.625324462890626
1766001865653352700,9.710352783203126,0.0348192937672138,-0.3010799884796142,-1.2749511003494265,7.644106201171876
1766001865672134100,9.729134033203126,0.1157588735222816,-1.1898882389068604,-1.6355141401290894,7.662887451171876
1766001865690915800,9.747915771484376,0.5485565662384033,-2.6435937881469727,-1.866268277168274,7.681669189453126
1766001865709697500,9.766697509765624,-0.1191186308860778,-1.9650756120681765,-1.862450361251831,7.700450927734375
1766001865728479000,9.78547900390625,-0.5061014890670776,-0.8589522242546082,-1.6636139154434204,7.719232421875001
1766001865747260700,9.8042607421875,-0.0276416316628456,0.3662897944450378,-1.3807834386825562,7.738014160156251
1766001865766042000,9.8230419921875,-0.019700389355421,0.9033926725387572,-1.0325905084609983,7.756795410156251
1766001865784823800,9.84182373046875,-0.2139553874731063,0.6465240120887756,-0.7780126333236694,7.775577148437501
1766001865803605500,9.86060546875,-0.0529925189912319,0.8959095478057861,-0.6660717129707336,7.794358886718751
1766001865822387000,9.879386962890624,0.0934623107314109,1.2118793725967407,-0.7774018049240112,7.813140380859375
1766001865841168600,9.898168701171874,-0.0493273325264453,0.2847393453121185,-0.8343649506568909,7.831922119140625
1766001865859950000,9.9169501953125,-0.0977383628487587,-1.0160971879959106,-0.5666534304618835,7.850703613281251
1766001865878731800,9.935731689453124,0.1621845960617065,-1.2355504035949707,-0.1712712198495865,7.869485107421875
1766001865897513500,9.954513427734376,0.2046397030353546,-0.194484069943428,0.1911243200302124,7.888266845703127
1766001865916295000,9.973294921875,0.0186313763260841,0.963257372379303,0.5752055644989014,7.907048339843751
1766001865935076600,9.99207666015625,-0.0326812639832496,1.177976369857788,0.8986584544181824,7.925830078125001
1766001865953858300,10.0108583984375,0.0965166315436363,0.5970439910888672,1.122998595237732,7.944611816406251
1766001865972639700,10.0296396484375,0.1904370933771133,0.3589594066143036,1.2883901596069336,7.963393066406251
1766001865991421400,10.04842138671875,0.1808159798383712,0.6136900186538696,1.3635265827178955,7.982174804687501
1766001866010203000,10.067202880859377,0.1464548259973526,1.0125846862792969,1.4362194538116455,8.000956298828127
1766001866028984600,10.085984619140625,0.1163697391748428,0.987539291381836,1.529834508895874,8.019738037109375
1766001866047766300,10.104766357421877,0.1397353112697601,0.765489935874939,1.6390265226364136,8.038519775390627
1766001866066547700,10.123547607421877,0.0833830460906028,0.4907535016536712,1.7914372682571411,8.057301025390627
1766001866085329400,10.142329345703123,0.0502436272799968,0.519769549369812,1.8735986948013303,8.076082763671874
1766001866104111000,10.161111083984377,0.0760526657104492,0.3386481702327728,1.8381685018539429,8.094864501953127
1766001866122892500,10.179892578125,0.0293215103447437,0.0539851747453212,1.7149264812469482,8.11364599609375
1766001866141674200,10.19867431640625,0.0059559317305684,0.0747545808553695,1.5692352056503296,8.132427734375
1766001866160455700,10.21745556640625,0.3636172711849212,-0.0541378892958164,1.292818903923035,8.151208984375
1766001866179237400,10.2362373046875,0.6924152374267578,-0.0229837875813245,1.0964258909225464,8.16999072265625
1766001866198019000,10.25501904296875,0.6650790572166443,-0.0148898288607597,0.5003746151924133,8.1887724609375
1766001866216800500,10.273800537109375,0.4103484153747558,-0.1625663936138153,0.0347429327666759,8.207553955078126
1766001866235582200,10.292582275390624,0.0332921296358108,-0.3931678533554077,-0.6263654828071594,8.226335693359374
1766001866254364000,10.311364013671875,-0.4181369543075561,-0.5205331444740295,-1.9200243949890137,8.245117431640626
1766001866273145300,10.330145263671875,-0.0433713980019092,-1.117348074913025,-2.6272530555725098,8.263898681640626
1766001866291927000,10.348927001953124,-0.0427605360746383,-1.5730531215667725,-3.3199737071990967,8.282680419921874
1766001866310708500,10.36770849609375,-0.2924515008926391,-2.192011833190918,-4.4008989334106445,8.3014619140625
1766001866329490200,10.386490234375,-0.8579595685005188,-2.571511745452881,-5.368356227874756,8.32024365234375
1766001866348271900,10.40527197265625,-1.632994294166565,-3.023246049880981,-5.231064319610596,8.339025390625
1766001866367053300,10.42405322265625,-0.462424635887146,-0.5041925311088562,-2.974224328994751,8.357806640625
1766001866385835000,10.4428349609375,0.2664897739887237,0.8504001498222351,-0.7906880974769592,8.37658837890625
1766001866404616700,10.46161669921875,0.1965457499027252,-0.1181259751319885,0.0949131175875663,8.3953701171875
1766001866423398100,10.480398193359376,0.2535088956356048,-0.4076758921146393,0.5619192123413086,8.414151611328126
1766001866451570700,10.50857080078125,0.1516471803188324,0.0590248107910156,0.4382191300392151,8.44232421875
1766001866470352400,10.527352294921876,-0.0077885258942842,0.1385899484157562,0.1900553107261657,8.461105712890626
1766001866489133800,10.5461337890625,0.0149661870673298,-0.1204167231917381,-0.0035888305865228,8.47988720703125
1766001866507915500,10.56491552734375,0.0006108647794462,-0.1204167231917381,-0.1107956022024154,8.4986689453125
1766001866526697000,10.583697021484374,-0.0088575389236211,-0.0640644431114196,-0.0851392820477485,8.517450439453125
1766001866545478700,10.602478759765624,-0.0038179049734026,0.050625417381525,0.0561232008039951,8.536232177734375
1766001866564260400,10.62126025390625,-0.036651886999607,0.391029804944992,0.2713003158569336,8.555013671875
1766001866583041800,10.640041748046874,-0.0937677472829818,0.9460004568099976,0.523892879486084,8.573795166015625
1766001866601823500,10.658823486328124,-0.1718057245016098,1.4214060306549072,0.8416953086853027,8.592576904296875
1766001866620605200,10.677605224609374,-0.1916588246822357,1.6300163269042969,1.1599558591842651,8.611358642578125
1766001866639386600,10.69638671875,-0.3118464648723602,2.2434773445129395,2.837848663330078,8.630140136718751
1766001866658168300,10.715168212890624,-0.0907134190201759,3.093037366867065,5.366523265838623,8.648921630859375
1766001866686340900,10.7433408203125,1.4926481246948242,2.4902665615081787,2.0696861743927,8.677094238281251
1766001866705122300,10.762122314453125,0.0904079899191856,-0.7868701815605164,2.0702970027923584,8.695875732421875
1766001866723904000,10.780904052734376,1.2286018133163452,-1.698891282081604,1.8513020277023315,8.714657470703127
1766001866742685400,10.799685546875,1.4158318042755127,-2.3419792652130127,1.9717952013015747,8.733438964843751
1766001866761467100,10.818467041015625,-0.7774781584739685,-0.2590830326080322,0.0713948234915733,8.752220458984375
1766001866780248800,10.837248779296877,-0.5222893953323364,0.5429824590682983,-0.4117992222309112,8.771002197265627
1766001866799030300,10.8560302734375,-0.2591593861579895,-0.1228601783514022,-1.0414481163024902,8.789783691406251
1766001866817812000,10.87481201171875,0.2281579971313476,-0.1150716543197631,-1.3277909755706787,8.808565429687501
1766001866836593400,10.893593505859377,0.4728093445301056,-0.5530617237091064,-1.480965256690979,8.827346923828127
1766001866855375000,10.912375,-0.0766635313630104,-0.7360156774520874,-1.7460806369781494,8.846128417968751
1766001866874156800,10.93115673828125,-0.5790998339653015,-0.5477166175842285,-1.677663803100586,8.86491015625
1766001866892938200,10.949938232421877,-0.4327977001667022,-0.1895971596240997,-1.4464514255523682,8.883691650390627
1766001866911720000,10.968719970703123,-0.122020237147808,0.1735619604587555,-1.1946223974227903,8.902473388671874
1766001866930501600,10.987501708984375,-0.0813977345824241,0.0932332351803779,-0.9624938368797302,8.921255126953126
1766001866949283000,11.006282958984375,-0.164780780673027,0.171882078051567,-0.7575486898422241,8.940036376953126
1766001866968064800,11.025064697265623,-0.1336266696453094,0.5020545125007629,-0.5692496299743652,8.958818115234374
1766001866986846200,11.04384619140625,-0.0647516697645187,0.5510764122009277,-0.4058432877063751,8.977599609375
1766001867005628000,11.0626279296875,-0.0152716198936104,-0.0093920463696122,-0.2189186662435531,8.99638134765625
1766001867024409600,11.08140966796875,0.0952949076890945,-0.8061124086380005,0.0213039088994264,9.0151630859375
1766001867043191000,11.10019091796875,0.2011272311210632,-0.9566906094551086,0.261984646320343,9.0339443359375
1766001867061972700,11.11897265625,0.119271345436573,-0.5125918984413147,0.4354702234268188,9.05272607421875
1766001867080754200,11.137754150390624,0.0216856990009546,0.1915824711322784,0.6336958408355713,9.071507568359374
1766001867099536000,11.156535888671876,0.06276635825634,0.4844921231269836,0.8158862590789795,9.090289306640626
1766001867118317600,11.175317626953126,0.0942258909344673,0.4602102637290954,0.9996038675308228,9.109071044921876
1766001867137099000,11.19409912109375,0.070096731185913,0.3836994469165802,1.1827105283737185,9.1278525390625
