time,seconds_elapsed,z,y,x,t
1766000757611309300,2.345309326171875,-1.4433207511901855,0.8091667294502258,-2.0067672729492188,0.0
1766000757630090500,2.364090576171875,-1.735008716583252,0.936073899269104,-0.0904843434691429,0.01878124999999997
1766000757648871700,2.38287158203125,-0.1562286615371704,-1.808236122131348,1.9557600021362305,0.03756225585937489
1766000757667652600,2.401652587890625,1.8115195035934448,-1.8196898698806765,0.9809724688529968,0.056343261718749815
1766000757686433800,2.420433837890625,0.9359975457191468,-0.1304959952831268,1.3905572891235352,0.07512451171874979
1766000757705214700,2.439214599609375,0.6809614896774292,-0.4194350242614746,1.2215005159378052,0.09390527343749966
1766000757723996000,2.457995849609375,0.735633909702301,-0.5471057891845703,1.2998439073562622,0.11268652343749963
1766000757742777000,2.476777099609375,0.6934842467308044,-0.4092030525207519,1.508454203605652,0.13146777343750005
1766000757761558000,2.49555810546875,0.8845322132110596,-0.0918587893247604,1.465693712234497,0.15024877929687497
1766000757780339200,2.514339111328125,1.458592414855957,-0.4550178945064544,0.714024543762207,0.1690297851562499
1766000757799120100,2.5331201171875,1.4911209344863892,-0.6885209679603577,0.4139372408390045,0.1878107910156248
1766000757817901300,2.5519013671875,1.219133377075195,-0.7497601509094238,0.4736492931842804,0.20659204101562478
1766000757836682200,2.57068212890625,1.156672477722168,-0.695698618888855,0.5481747984886169,0.22537280273437466
1766000757855463400,2.58946337890625,1.1435388326644895,-0.7404444813728333,0.7402917742729187,0.24415405273437463
1766000757874244400,2.608244384765625,1.1717913150787354,-1.0611485242843628,0.936379373073578,0.26293505859375
1766000757893025500,2.627025634765625,1.2261583805084229,-1.259068727493286,0.7943533062934875,0.28171630859374996
1766000757911806700,2.645806640625,1.1658353805541992,-0.9753220081329346,0.4997637569904327,0.3004973144531249
1766000757930587600,2.664587646484375,0.9911280870437622,-0.5183951258659363,0.4692205190658569,0.3192783203124998
1766000757949368800,2.683368896484375,0.8759800791740417,-0.1468366235494613,0.552603542804718,0.3380595703124998
1766000757968149800,2.702149658203125,0.7609847784042358,0.1671478748321533,0.5863538384437561,0.35684033203124965
1766000757986931000,2.720930908203125,0.602007269859314,0.2401462197303772,0.5020545125007629,0.37562158203125007
1766000758005712000,2.7397119140625,0.4535670876502991,0.1601229310035705,0.3763690590858459,0.394402587890625
1766000758024493000,2.7584931640625,0.3173442482948303,0.021609341725707,0.2473238706588745,0.41318383789062496
1766000758043274200,2.777274169921875,0.1580612659454345,-0.1388953775167465,0.1395062506198883,0.4319648437499999
1766000758062055200,2.79605517578125,-0.0181732270866632,-0.2540434002876282,0.0416151620447635,0.4507458496093748
1766000758080836400,2.81483642578125,-0.1669187992811203,-0.2441168427467346,-0.0790306329727172,0.4695270996093748
1766000758099617300,2.8336171875,-0.2715294063091278,-0.169133186340332,-0.1993709951639175,0.48830786132812465
1766000758118398500,2.8523984375,-0.3926333487033844,-0.1569158881902694,-0.3142135739326477,0.5070891113281251
1766000758137179600,2.8711796875,-0.5891790986061096,-0.143782302737236,-0.4698313772678375,0.525870361328125
1766000758155960600,2.889960693359375,-0.780837893486023,-0.1107956022024154,-0.644844114780426,0.5446513671875
1766000758174741800,2.90874169921875,-0.8712459206581116,-0.0481819584965705,-0.8252019882202148,0.5634323730468749
1766000758193522700,2.927522705078125,-0.9665408134460448,-0.0457384996116161,-1.0332014560699463,0.5822133789062498
1766000758212304000,2.946303955078125,-1.1294889450073242,-0.0605519711971282,-1.243338942527771,0.6009946289062498
1766000758231084800,2.965084716796875,-1.2797616720199585,-0.0700203776359558,-1.431943416595459,0.6197753906249996
1766000758249866000,2.983865966796875,-1.3681844472885132,-0.0791833475232124,-1.6158137321472168,0.6385566406250001
1766000758278037500,3.01203759765625,-1.4132356643676758,-0.1819613426923751,-1.851149320602417,0.666728271484375
1766000758296818700,3.030818603515625,-1.3660463094711304,-0.2926805913448334,-1.980958104133606,0.6855092773437499
1766000758315599600,3.049599609375,-1.2360849380493164,-0.2627482116222381,-2.158719778060913,0.7042902832031248
1766000758334380800,3.068380859375,-1.1198678016662598,0.3571268320083618,-3.2242207527160645,0.7230715332031248
1766000758353162000,3.087161865234375,-1.3096940517425537,2.3076181411743164,-0.9580650329589844,0.7418525390624997
1766000758381333500,3.11533349609375,0.2955058515071869,0.4947241246700287,-0.2309832423925399,0.7700241699218751
1766000758400114700,3.13411474609375,0.2837466895580292,0.5489383339881897,0.2952767610549927,0.788805419921875
1766000758418895600,3.1528955078125,0.12553271651268,0.2685514390468597,0.7732784748077393,0.8075861816406249
1766000758437676800,3.1716767578125,0.6372846961021423,-0.6466767191886902,0.812221109867096,0.8263674316406249
1766000758456457700,3.190457763671875,0.9466876983642578,-1.1335359811782837,0.6706531643867493,0.8451484374999998
1766000758475239000,3.209239013671875,0.8799507021903992,-1.0145699977874756,0.658741295337677,0.8639296874999998
1766000758494020000,3.22802001953125,0.7507528066635132,-0.9605085253715516,0.5319868922233582,0.8827106933593747
1766000758512801000,3.246801025390625,0.7426588535308838,-0.8708640933036804,0.3884336352348327,0.90149169921875
1766000758531582200,3.265582275390625,0.7841976881027222,-0.3989710509777069,0.3520871996879577,0.92027294921875
1766000758550363100,3.284363037109375,0.8023709058761597,-0.1052978187799453,0.3881282210350036,0.9390537109374999
1766000758569144300,3.303144287109375,0.8643736839294434,-0.1372154951095581,0.5034289360046387,0.9578349609374999
1766000758587925200,3.32192529296875,0.980132520198822,-0.3119228184223175,0.6530908346176147,0.9766159667968748
1766000758606706400,3.34070654296875,1.008537769317627,-0.4231002032756805,0.7011964321136475,0.9953972167968748
1766000758625487600,3.359487548828125,0.8941532969474792,-0.3756054937839508,0.7176897525787354,1.0141782226562497
1766000758644268500,3.3782685546875,0.7571669220924377,-0.2187659442424774,0.7827468514442444,1.032959228515625
1766000758663049700,3.3970498046875,0.698371171951294,-0.0684932097792625,0.8539125919342041,1.051740478515625
1766000758681830700,3.41583056640625,0.6122392416000366,-0.058719377964735,0.8377246856689453,1.070521240234375
1766000758700611800,3.43461181640625,0.4584540128707886,-0.0813213735818862,0.783815860748291,1.0893024902343749
1766000758719393000,3.45339306640625,0.3158170878887176,-0.0579557977616786,0.6880627870559692,1.1080837402343748
1766000758738174000,3.472174072265625,0.2428187429904937,-0.0414624474942684,0.5920043587684631,1.1268647460937498
1766000758756955100,3.490955078125,0.2128863781690597,-0.0382554084062576,0.5115228891372681,1.1456457519531247
1766000758775736000,3.509736083984375,0.1968511790037155,-0.0043524117209017,0.4452440738677978,1.1644267578125
1766000758794517200,3.528517333984375,0.1571449637413025,0.0900261998176574,0.3769799172878265,1.1832080078125
1766000758813298200,3.547298095703125,0.0649043843150138,0.1954003721475601,0.3039815723896026,1.20198876953125
1766000758832079400,3.566079345703125,-0.0209221187978982,0.2485456019639969,0.2581667304039001,1.2207700195312499
1766000758850860500,3.584860595703125,-0.0823140293359756,0.1382845193147659,0.2034943252801895,1.2395512695312498
1766000758869641500,3.603641357421875,-0.1664606481790542,0.0191658828407526,0.1256090700626373,1.2583320312499997
1766000758888422700,3.622422607421875,-0.2535088956356048,0.0542906075716018,0.0035888305865228,1.2771132812499997
1766000758907203600,3.64120361328125,-0.3814850449562073,0.2807687222957611,-0.1535561382770538,1.295894287109375
1766000758925984800,3.65998486328125,-0.6017017960548401,0.5949059128761292,-0.3177260458469391,1.314675537109375
1766000758944765700,3.678765625,-0.7999274134635925,0.7969494462013245,-0.4906007647514343,1.3334562988281249
1766000758963547000,3.697546875,-0.9233221411705016,0.9006437659263611,-0.6836340427398682,1.3522375488281249
1766000758991718700,3.72571875,-1.133306860923767,1.1292599439620972,-1.0286198854446411,1.3804094238281248
1766000759010499600,3.74449951171875,-1.3225222826004028,1.1642318964004517,-1.2085195779800415,1.3991901855468747
1766000759029280800,3.76328076171875,-1.4391974210739136,0.9163735508918762,-1.4133120775222778,1.4179714355468747
1766000759048061700,3.782061767578125,-1.4891356229782104,0.5802451968193054,-1.6541454792022705,1.43675244140625
1766000759066843000,3.8008427734375,-1.4984513521194458,0.3504073023796081,-1.7920482158660889,1.455533447265625
1766000759085623800,3.819623779296875,-1.4721840620040894,0.3858374655246734,-1.7697516679763794,1.4743144531249999
1766000759104405000,3.838405029296875,-1.4827215671539309,0.5640572905540466,-1.7662391662597656,1.4930957031249998
1766000759123186200,3.857186279296875,-1.4384338855743408,0.7696132659912109,-1.8109849691390991,1.5118769531249998
1766000759141967000,3.875967041015625,-1.3823870420455933,2.557767152786255,0.3838521540164947,1.5306577148437497
1766000759160748300,3.894748291015625,0.3272708058357239,-0.1805869042873382,0.787939190864563,1.5494389648437497
1766000759179529200,3.913529296875,0.7516691088676453,-1.1813361644744873,0.8505528569221497,1.568219970703125
1766000759198310400,3.932310302734375,0.2525925934314728,-0.208839401602745,1.022663950920105,1.5870009765625
1766000759217091600,3.951091552734375,0.7615956664085388,-0.6440805792808533,0.9302706718444824,1.6057822265625
1766000759235872500,3.96987255859375,1.202792763710022,-0.7208967804908752,0.8158862590789795,1.6245632324218748
1766000759254653700,3.98865380859375,0.9350812435150146,-0.2308305352926254,0.7160098552703857,1.6433444824218748
1766000759273434600,4.0074345703125,0.9005674123764038,-0.1712712198495865,0.7955750226974487,1.6621252441406251
1766000759292215800,4.0262158203125,1.005788803100586,-0.1735619604587555,0.8038216829299927,1.680906494140625
1766000759310997000,4.0449970703125,1.0326669216156006,-0.3099375069141388,0.8548288941383362,1.699687744140625
1766000759329778000,4.06377783203125,1.053741693496704,-0.61201012134552,0.9336304664611816,1.718468505859375
1766000759348559000,4.08255908203125,1.158199667930603,-0.866893470287323,0.9388228058815002,1.737249755859375
1766000759367340000,4.101340087890625,1.2524255514144895,-0.9128610491752625,0.8769727349281311,1.7560307617187498
1766000759386121200,4.120121337890625,1.2399027347564695,-0.6845503449440002,0.8132901191711426,1.7748120117187498
1766000759404902400,4.13890234375,1.152243733406067,-0.5489383339881897,0.8270345330238342,1.7935930175781247
1766000759423683300,4.157683349609375,1.0914626121520996,-0.5274053812026978,0.853607177734375,1.8123740234374996
1766000759442464500,4.176464599609375,1.030987024307251,-0.4817432463169098,0.8250492215156555,1.8311552734374996
1766000759461245400,4.195245361328125,0.9265291690826416,-0.4521162807941437,0.7624356150627136,1.8499360351562495
1766000759480026600,4.214026611328125,0.8016073107719421,-0.3728565871715545,0.6843976378440857,1.8687172851562495
1766000759498807800,4.232807861328125,0.6928733587265015,-0.2238055765628814,0.5904771685600281,1.8874985351562494
1766000759517588700,4.251588623046875,0.5490147471427917,-0.0413097292184829,0.4727329909801483,1.9062792968750002
1766000759536370000,4.270369873046875,0.3472766280174255,0.1004109010100364,0.3345248103141784,1.9250605468750002
1766000759555150800,4.28915087890625,0.1786779463291168,0.1712712198495865,0.2235001474618911,1.943841552734375
1766000759573932000,4.30793212890625,0.0122172953560948,0.1854738146066665,0.1246927753090858,1.962622802734375
1766000759592713000,4.326712890625,-0.1449276655912399,0.150196373462677,0.0155006935819983,1.981403564453125
1766000759611494100,4.345494140625,-0.2826776802539825,0.1734092384576797,-0.1346193253993988,2.000184814453125
