time,seconds_elapsed,z,y,x,t
1766000641787357700,3.911357666015625,-1.1070947647094729,-1.5876498222351074,-1.205063819885254,2.0001484375
1766000641806138400,3.930138427734375,-1.1019372940063477,-1.076596736907959,-1.994645595550537,2.01892919921875
1766000641824919300,3.948919189453125,-0.8655829429626465,-0.1811423301696777,0.0061379671096801,2.0377099609375
1766000641843700000,3.967699951171875,-0.7791314125061035,0.2427139282226562,1.2586894035339355,2.05649072265625
1766000641862480600,3.986480712890625,-0.8610997200012207,0.5043830871582031,1.127916693687439,2.075271484375
1766000641881261600,4.005261474609375,-0.6518855094909668,0.7682967185974121,0.3008331060409546,2.09405224609375
1766000641900042200,4.024042236328125,-0.3699846267700195,0.8018527030944824,-1.0367050170898438,2.1128330078124997
1766000641918823000,4.042822998046875,0.0808854103088378,1.057945728302002,-1.3460991382598877,2.1316137695312496
1766000641937603600,4.061603515625,0.2318105697631836,1.2891740798950195,-0.8731000423431396,2.1503942871093753
1766000641956384500,4.080384521484375,0.5593080520629883,1.7667856216430664,-0.3309637904167175,2.1691752929687502
1766000641975165200,4.099165283203125,0.6669158935546875,2.1434121131896973,-0.5777983665466309,2.1879560546875
1766000641993945900,4.11794580078125,0.9339284896850586,2.193811416625977,-1.2586888074874878,2.206736572265625
1766000642012726800,4.136726806640625,0.9567608833312988,1.7621583938598633,-1.9388364553451536,2.225517578125
1766000642031507500,4.155507568359375,1.3352670669555664,1.949789047241211,-1.760360836982727,2.2442983398437497
1766000642050288000,4.1742880859375,1.6093263626098633,2.2175450325012207,-1.2049591541290283,2.2630788574218745
1766000642069069000,4.193069091796875,1.705965518951416,2.568634033203125,-0.7767096161842346,2.2818598632812503
1766000642087849700,4.211849609375,1.6350364685058594,2.680670738220215,-0.8805396556854248,2.300640380859375
1766000642106630400,4.23063037109375,1.9166507720947263,2.7159056663513184,-1.4460384845733645,2.319421142578125
1766000642125410800,4.249410888671875,1.7350411415100098,2.738286018371582,-1.6612744331359863,2.33820166015625
1766000642144191500,4.26819140625,1.643606662750244,2.944385051727295,-1.077331781387329,2.3569821777343747
1766000642162972200,4.28697216796875,1.948699951171875,3.371596336364746,-0.590394139289856,2.3757629394531246
1766000642181753000,4.305753173828125,2.4239964485168457,3.34253454208374,-0.951353907585144,2.3945439453125004
1766000642200533800,4.32453369140625,2.610523223876953,2.6572375297546387,-1.700308084487915,2.413324462890625
1766000642219314400,4.343314453125,2.471233367919922,2.378039836883545,-1.7975281476974487,2.432105224609375
1766000642238095000,4.36209521484375,2.163958549499512,2.4739794731140137,-1.4404253959655762,2.450885986328125
1766000642256876000,4.3808759765625,2.036139965057373,2.463679790496826,-1.1808518171310425,2.469666748046875
1766000642275656700,4.39965673828125,1.7675495147705078,2.2701244354248047,-1.073237061500549,2.4884475097656247
1766000642294437400,4.418437255859375,1.5409002304077148,1.990025520324707,-0.9929094910621644,2.5072280273437504
1766000642313218300,4.43721826171875,1.2535252571105957,1.5486116409301758,-1.1377826929092407,2.5260090332031253
1766000642331999000,4.4559990234375,1.147554874420166,1.3817591667175293,-1.3304550647735596,2.544789794921875
1766000642350779600,4.474779541015625,1.1260437965393066,1.1908154487609863,-1.4017882347106934,2.5635703125
1766000642369560600,4.493560546875,0.9237079620361328,0.5383791923522949,-1.2378679513931274,2.582351318359375
1766000642388341200,4.51234130859375,0.6867098808288574,0.5196447372436523,-0.604057788848877,2.601132080078125
1766000642407122000,4.531121826171875,0.395273208618164,0.4413323402404785,0.1225440204143524,2.6199125976562496
1766000642425902600,4.549902587890625,-0.0063552856445312,-0.0716242790222168,0.6698442697525024,2.6386933593750004
1766000642444683500,4.56868359375,-0.5179095268249512,-0.433511734008789,0.9068968296051024,2.6574743652343753
1766000642463464200,4.587464111328125,-1.3311429023742676,-0.9115362167358398,1.650925636291504,2.6762548828125
1766000642482245000,4.6062451171875,-2.050407886505127,-1.0762763023376465,3.157529354095459,2.695035888671875
1766000642501025800,4.62502587890625,-9.48838233947754,-6.640793323516846,1.650925636291504,2.713816650390625
1766000642519806500,4.643806396484375,-2.050407886505127,-5.667629241943359,3.157529354095459,2.7325971679687497
1766000642538587100,4.662587158203125,0.2823219299316406,9.263239860534668,1.6323237419128418,2.7513779296874996
1766000642557368000,4.6813681640625,2.641723394393921,-5.899602890014648,9.28050136566162,2.7701589355468745
1766000642576148700,4.700148681640625,0.2823219299316406,-6.128854751586914,0.7697696685791016,2.7889394531250002
1766000642594929400,4.718929443359375,0.008303165435791,-2.8401403427124023,-0.1254260689020156,2.80772021484375
1766000642613710300,4.73771044921875,0.441960334777832,-1.3386173248291016,1.3419435024261477,2.826501220703125
1766000642632491000,4.756490966796875,0.0348062515258789,-1.898520946502685,1.751307249069214,2.84528173828125
1766000642651271700,4.775271728515625,-1.1843628883361816,-1.9302020072937007,2.263190031051636,2.8640624999999997
1766000642670052600,4.794052490234375,-1.311673641204834,-1.0588231086730957,4.1722331047058105,2.8828432617187496
1766000642688833300,4.812833251953125,-1.158803939819336,-0.6651825904846191,4.051813125610352,2.9016240234375004
1766000642707614000,4.831614013671875,-1.1656475067138672,-1.0261693000793457,0.2220426201820373,2.9204047851562502
1766000642726395000,4.850394775390625,-0.8117237091064453,-0.9724602699279784,-2.879384994506836,2.939185546875
1766000642745175600,4.869175537109375,-0.4373626708984375,-0.6563034057617188,-2.222027540206909,2.95796630859375
1766000642763956500,4.88795654296875,-0.3806357383728027,0.3176689147949219,-0.147537350654602,2.976747314453125
1766000642782737200,4.906737060546875,-0.4091887474060058,0.6304888725280762,0.601784884929657,2.9955278320312497
1766000642801517800,4.925517822265625,-0.4567093849182129,0.995643138885498,0.6925697922706604,3.0143085937499996
1766000642820298500,4.944298583984375,-0.3991680145263672,1.0802116394042969,-0.2045192122459411,3.0330893554687504
1766000642839079400,4.963079345703125,-0.0063123703002929,1.2810587882995603,-0.8547141551971436,3.0518701171875002
1766000642857860000,4.981860107421875,0.4663119316101074,1.485858917236328,-1.17284095287323,3.07065087890625
1766000642876641000,5.00064111328125,0.971749782562256,1.8564682006835935,-1.5523656606674194,3.089431884765625
1766000642895421700,5.019421630859375,1.3861751556396484,2.2709860801696777,-1.4190716743469238,3.10821240234375
1766000642914202400,5.038202392578125,1.6988511085510254,2.4514198303222656,-1.1557252407073977,3.1269931640624997
1766000642932983300,5.0569833984375,2.127117156982422,2.630152702331543,-1.2417056560516355,3.1457741699218746
1766000642951764000,5.075763916015625,2.4123077392578125,2.4624147415161133,-1.6887773275375366,3.1645546875000004
1766000642970544600,5.094544677734375,2.918344020843506,2.789544105529785,-1.7920498847961426,3.1833354492187502
1766000642989325600,5.11332568359375,2.798610210418701,3.177992820739746,-1.4263665676116943,3.202116455078125
1766000643008106200,5.132106201171875,2.466092109680176,3.2710022926330566,-0.8404686450958252,3.22089697265625
1766000643026887000,5.150886962890625,2.1511030197143555,3.0662474632263184,-0.7037276029586792,3.239677734375
1766000643045667800,5.169667724609375,1.986572265625,3.098128318786621,-0.9388757348060608,3.2584584960937497
1766000643064448500,5.188448486328125,2.1223278045654297,2.8218255043029785,-1.6344997882843018,3.2772392578124996
1766000643083229200,5.207229248046875,2.3874964714050293,2.555609226226806,-1.7890543937683103,3.2960200195312503
1766000643102010000,5.226010009765625,2.412402629852295,2.785612106323242,-1.351585865020752,3.31480078125
1766000643130181000,5.25418115234375,2.2704954147338867,2.667679786682129,-1.0430214405059814,3.342971923828125
1766000643148961800,5.2729619140625,2.0299792289733887,2.5472235679626465,-1.0880643129348757,3.361752685546875
1766000643167742700,5.29174267578125,1.5384821891784668,2.503746509552002,-1.0343880653381348,3.3805334472656248
1766000643186523400,5.3105234375,1.1854963302612305,2.208275318145752,-0.7347390651702881,3.3993142089843746
1766000643205304000,5.329303955078125,0.9713020324707032,1.9588584899902344,-0.450130820274353,3.4180947265625004
1766000643224085000,5.3480849609375,0.9018254280090332,1.8189458847045896,-0.2652269005775451,3.4368757324218753
1766000643242865700,5.36686572265625,0.956411838531494,1.3198552131652832,-0.2473105639219284,3.455656494140625
1766000643261646300,5.385646240234375,0.9013066291809082,0.906951904296875,-0.3399913907051086,3.47443701171875
1766000643280427300,5.40442724609375,0.6451859474182129,0.2931756973266601,-0.1913055032491684,3.493218017578125
1766000643299208000,5.4232080078125,0.4909620285034179,-0.2201237678527832,0.1926539242267608,3.5119987792968748
1766000643317988600,5.441988525390625,0.1252551078796386,-0.5701589584350586,0.7360719442367554,3.5307792968749996
1766000643336769500,5.46076953125,-1.140676498413086,-0.4960818290710449,1.2497718334197998,3.5495603027343754
1766000643355550200,5.47955029296875,-3.339442253112793,-0.4318494796752929,1.1224737167358398,3.5683410644531253
1766000643374331000,5.498330810546875,-2.3305563926696777,-0.0488538742065429,2.926629543304444,3.58712158203125
1766000643393111800,5.51711181640625,-2.8349993228912354,-6.904486656188965,3.325469493865967,3.605902587890625
1766000643411892500,5.535892578125,-11.000171661376951,-0.4632520675659179,3.72430944442749,3.624683349609375
1766000643430673200,5.554673095703125,2.3106517791748047,-4.223530292510986,9.070619583129885,3.6434638671874997
1766000643449454000,5.5734541015625,-2.521775722503662,-6.49655294418335,3.600432872772217,3.6622448730468746
1766000643468234800,5.59223486328125,-2.1828017234802246,-4.6343255043029785,0.5407803654670715,3.6810256347656254
1766000643496406000,5.620406005859375,-1.300522804260254,-3.5613017082214355,0.7817645072937012,3.70919677734375
1766000643515186700,5.639186767578125,-0.7944073677062988,-3.4253292083740234,2.812826156616211,3.7279775390625
1766000643533967400,5.65796728515625,-1.442441463470459,-2.8235363960266118,3.89234471321106,3.746758056640625
1766000643552748300,5.676748291015625,-2.3927197456359863,-1.6267104148864746,4.196958541870117,3.7655390625
1766000643571529000,5.695529052734375,-1.3578133583068848,0.1773090362548828,2.5019216537475586,3.7843198242187497
1766000643590309600,5.7143095703125,0.0659022331237793,0.8355884552001953,0.1390446126461029,3.8031003417968754
1766000643609090600,5.733090576171875,0.2410812377929687,-0.3560714721679687,-2.222586154937744,3.8218813476562503
1766000643627871200,5.751871337890625,-0.6233792304992676,-0.8926992416381836,-2.092249155044556,3.840662109375
1766000643646652200,5.770652099609375,-0.4988317489624023,-0.0998578071594238,-0.6406757235527039,3.85944287109375
1766000643665432800,5.789432861328125,-0.0052804946899414,0.4316563606262207,0.1325293183326721,3.8782236328125
1766000643684213500,5.808213623046875,0.3159594535827636,0.4774293899536133,0.3806969821453094,3.89700439453125
1766000643702994400,5.826994384765625,0.6038198471069336,0.5977139472961426,0.2321494817733764,3.9157851562499997
1766000643721775000,5.845775146484375,0.9610838890075684,0.9166412353515624,-0.5464412569999695,3.9345659179687495
1766000643740555800,5.8645556640625,1.438035011291504,1.2945246696472168,-1.6564154624938965,3.9533464355468753
1766000643759336400,5.88333642578125,2.042269229888916,1.868079662322998,-2.048305034637451,3.972127197265625
1766000643778117400,5.902117431640625,2.2069010734558105,2.850059986114502,-1.249406814575195,3.990908203125
