time,seconds_elapsed,z,y,x,t
1766000642782737200,4.906737060546875,-0.4091887474060058,0.6304888725280762,0.601784884929657,2.9955278320312497
1766000642801517800,4.925517822265625,-0.4567093849182129,0.995643138885498,0.6925697922706604,3.0143085937499996
1766000642820298500,4.944298583984375,-0.3991680145263672,1.0802116394042969,-0.2045192122459411,3.0330893554687504
1766000642839079400,4.963079345703125,-0.0063123703002929,1.2810587882995603,-0.8547141551971436,3.0518701171875002
1766000642857860000,4.981860107421875,0.4663119316101074,1.485858917236328,-1.17284095287323,3.07065087890625
1766000642876641000,5.00064111328125,0.971749782562256,1.8564682006835935,-1.5523656606674194,3.089431884765625
1766000642895421700,5.019421630859375,1.3861751556396484,2.2709860801696777,-1.4190716743469238,3.10821240234375
1766000642914202400,5.038202392578125,1.6988511085510254,2.4514198303222656,-1.1557252407073977,3.1269931640624997
1766000642932983300,5.0569833984375,2.127117156982422,2.630152702331543,-1.2417056560516355,3.1457741699218746
1766000642951764000,5.075763916015625,2.4123077392578125,2.4624147415161133,-1.6887773275375366,3.1645546875000004
1766000642970544600,5.094544677734375,2.918344020843506,2.789544105529785,-1.7920498847961426,3.1833354492187502
1766000642989325600,5.11332568359375,2.798610210418701,3.177992820739746,-1.4263665676116943,3.202116455078125
1766000643008106200,5.132106201171875,2.466092109680176,3.2710022926330566,-0.8404686450958252,3.22089697265625
1766000643026887000,5.150886962890625,2.1511030197143555,3.0662474632263184,-0.7037276029586792,3.239677734375
1766000643045667800,5.169667724609375,1.986572265625,3.098128318786621,-0.9388757348060608,3.2584584960937497
1766000643064448500,5.188448486328125,2.1223278045654297,2.8218255043029785,-1.6344997882843018,3.2772392578124996
1766000643083229200,5.207229248046875,2.3874964714050293,2.555609226226806,-1.7890543937683103,3.2960200195312503
1766000643102010000,5.226010009765625,2.412402629852295,2.785612106323242,-1.351585865020752,3.31480078125
1766000643130181000,5.25418115234375,2.2704954147338867,2.667679786682129,-1.0430214405059814,3.342971923828125
1766000643148961800,5.2729619140625,2.0299792289733887,2.5472235679626465,-1.0880643129348757,3.361752685546875
1766000643167742700,5.29174267578125,1.5384821891784668,2.503746509552002,-1.0343880653381348,3.3805334472656248
1766000643186523400,5.3105234375,1.1854963302612305,2.208275318145752,-0.7347390651702881,3.3993142089843746
1766000643205304000,5.329303955078125,0.9713020324707032,1.9588584899902344,-0.450130820274353,3.4180947265625004
1766000643224085000,5.3480849609375,0.9018254280090332,1.8189458847045896,-0.2652269005775451,3.4368757324218753
1766000643242865700,5.36686572265625,0.956411838531494,1.3198552131652832,-0.2473105639219284,3.455656494140625
1766000643261646300,5.385646240234375,0.9013066291809082,0.906951904296875,-0.3399913907051086,3.47443701171875
1766000643280427300,5.40442724609375,0.6451859474182129,0.2931756973266601,-0.1913055032491684,3.493218017578125
1766000643299208000,5.4232080078125,0.4909620285034179,-0.2201237678527832,0.1926539242267608,3.5119987792968748
1766000643317988600,5.441988525390625,0.1252551078796386,-0.5701589584350586,0.7360719442367554,3.5307792968749996
1766000643336769500,5.46076953125,-1.140676498413086,-0.4960818290710449,1.2497718334197998,3.5495603027343754
1766000643355550200,5.47955029296875,-3.339442253112793,-0.4318494796752929,1.1224737167358398,3.5683410644531253
1766000643374331000,5.498330810546875,-2.3305563926696777,-0.0488538742065429,2.926629543304444,3.58712158203125
1766000643393111800,5.51711181640625,-2.8349993228912354,-6.904486656188965,3.325469493865967,3.605902587890625
1766000643411892500,5.535892578125,-11.000171661376951,-0.4632520675659179,3.72430944442749,3.624683349609375
1766000643430673200,5.554673095703125,2.3106517791748047,-4.223530292510986,9.070619583129885,3.6434638671874997
1766000643449454000,5.5734541015625,-2.521775722503662,-6.49655294418335,3.600432872772217,3.6622448730468746
1766000643468234800,5.59223486328125,-2.1828017234802246,-4.6343255043029785,0.5407803654670715,3.6810256347656254
1766000643496406000,5.620406005859375,-1.300522804260254,-3.5613017082214355,0.7817645072937012,3.70919677734375
1766000643515186700,5.639186767578125,-0.7944073677062988,-3.4253292083740234,2.812826156616211,3.7279775390625
1766000643533967400,5.65796728515625,-1.442441463470459,-2.8235363960266118,3.89234471321106,3.746758056640625
1766000643552748300,5.676748291015625,-2.3927197456359863,-1.6267104148864746,4.196958541870117,3.7655390625
1766000643571529000,5.695529052734375,-1.3578133583068848,0.1773090362548828,2.5019216537475586,3.7843198242187497
1766000643590309600,5.7143095703125,0.0659022331237793,0.8355884552001953,0.1390446126461029,3.8031003417968754
1766000643609090600,5.733090576171875,0.2410812377929687,-0.3560714721679687,-2.222586154937744,3.8218813476562503
1766000643627871200,5.751871337890625,-0.6233792304992676,-0.8926992416381836,-2.092249155044556,3.840662109375
1766000643646652200,5.770652099609375,-0.4988317489624023,-0.0998578071594238,-0.6406757235527039,3.85944287109375
1766000643665432800,5.789432861328125,-0.0052804946899414,0.4316563606262207,0.1325293183326721,3.8782236328125
1766000643684213500,5.808213623046875,0.3159594535827636,0.4774293899536133,0.3806969821453094,3.89700439453125
1766000643702994400,5.826994384765625,0.6038198471069336,0.5977139472961426,0.2321494817733764,3.9157851562499997
1766000643721775000,5.845775146484375,0.9610838890075684,0.9166412353515624,-0.5464412569999695,3.9345659179687495
1766000643740555800,5.8645556640625,1.438035011291504,1.2945246696472168,-1.6564154624938965,3.9533464355468753
1766000643759336400,5.88333642578125,2.042269229888916,1.868079662322998,-2.048305034637451,3.972127197265625
1766000643778117400,5.902117431640625,2.2069010734558105,2.850059986114502,-1.249406814575195,3.990908203125
1766000643796898000,5.92089794921875,2.478012561798096,3.827967643737793,-0.3757708072662353,4.009688720703124
1766000643815679000,5.939678955078125,2.607555389404297,4.156760215759277,-0.3636946380138397,4.0284697265625
1766000643834459600,5.958459716796875,2.776845932006836,3.921253204345703,-1.0402038097381592,4.04725048828125
1766000643853240300,5.977240234375,2.6665964126586914,3.9718852043151855,-1.661009669303894,4.066031005859376
1766000643872021200,5.996021240234375,2.514955997467041,4.337985992431641,-1.6955413818359375,4.08481201171875
1766000643890802000,6.014802001953125,2.3860015869140625,4.225099086761475,-1.522791624069214,4.1035927734375
1766000643909582600,6.03358251953125,2.3509416580200195,4.394162654876709,-1.3118926286697388,4.122373291015625
1766000643928363500,6.052363525390625,2.41378116607666,4.442220687866211,-1.2531157732009888,4.1411542968749995
1766000643947144200,6.071144287109375,2.198460102081299,3.685544013977051,-1.297954797744751,4.159935058593749
1766000643965924900,6.0899248046875,2.1118526458740234,2.861173152923584,-1.765516757965088,4.178715576171875
1766000643984705800,6.108705810546875,2.357333183288574,2.5271401405334477,-2.04660701751709,4.197496582031249
1766000644003486500,6.127486572265625,2.1419501304626465,2.491426467895508,-1.774296522140503,4.216277343750001
1766000644022267100,6.14626708984375,1.7217803001403809,1.7417173385620115,-1.7186623811721802,4.235057861328125
1766000644041048000,6.165048095703125,0.8644332885742188,1.1454734802246094,-1.4848754405975342,4.2538388671875005
1766000644059828700,6.183828857421875,0.1703715324401855,1.2383184432983398,-0.9267321825027466,4.27261962890625
1766000644078609700,6.202609619140625,-0.1688618659973144,1.048722267150879,-0.4652565121650696,4.291400390625
1766000644097390300,6.221390380859375,-0.1480965614318847,0.2256431579589843,-0.1310464590787887,4.31018115234375
1766000644116171000,6.2401708984375,-0.0432524681091308,-0.2272710800170898,0.0386643856763839,4.328961669921876
1766000644134952000,6.258951904296875,-0.0391516685485839,-0.2110142707824707,0.6705313920974731,4.34774267578125
1766000644153732600,6.277732666015625,-0.6098117828369141,-0.6463212966918945,1.5982675552368164,4.3665234375
1766000644172513300,6.29651318359375,0.4581823348999023,-1.9689064025878904,2.362288475036621,4.385303955078125
1766000644191294200,6.315294189453125,-2.5190982818603516,-7.184128761291504,4.975417137145996,4.4040849609374995
1766000644210075000,6.334074951171875,-14.654722213745115,0.7896003723144531,7.588545799255371,4.422865722656249
1766000644228855600,6.35285546875,-4.428384780883789,-2.2738990783691406,9.75782585144043,4.441646240234375
1766000644247636500,6.371636474609375,3.61403226852417,-10.569863319396973,2.910181999206543,4.460427246093751
1766000644266417200,6.390417236328125,-0.6527953147888184,-7.088534832000732,-2.3402724266052246,4.479208007812501
1766000644285197800,6.40919775390625,-0.4245028495788574,-2.5197439193725586,-0.85306715965271,4.497988525390625
1766000644303978800,6.427978759765625,-0.2516236305236816,-0.4829301834106445,0.574356734752655,4.5167695312500005
1766000644322759400,6.446759521484375,0.3024754524230957,-1.6570734977722168,1.527000069618225,4.53555029296875
1766000644341540400,6.465540283203125,-1.1687030792236328,-2.7083048820495605,2.6935858726501465,4.5543310546875
1766000644360321000,6.484321044921875,-1.301769733428955,-1.398554801940918,4.649844646453857,4.57311181640625
1766000644379101700,6.503101806640625,-1.2739500999450684,-1.4618945121765137,2.4153802394866943,4.591892578125
1766000644397882600,6.521882568359375,-1.27006196975708,-1.9580206871032717,-1.5971059799194336,4.61067333984375
1766000644416663300,6.540663330078125,-1.0875158309936523,-1.1505732536315918,-2.722695589065552,4.6294541015625
1766000644435444000,6.55944384765625,-0.7934212684631348,-0.5342888832092285,-0.4154250025749206,4.648234619140625
1766000644454225000,6.578224853515625,-1.1220722198486328,-0.3075599670410156,1.3642034530639648,4.6670156249999994
1766000644473005600,6.597005615234375,-0.8401288986206055,0.2964897155761719,1.3800063133239746,4.685796386718749
1766000644491786200,6.6157861328125,-0.4363760948181152,0.516352653503418,0.2413285225629806,4.704576904296875
1766000644510567200,6.634567138671875,0.5462636947631836,0.6455273628234863,-0.1527075171470642,4.723357910156251
1766000644529347800,6.653347900390625,1.0126276016235352,1.083174228668213,-0.8544566631317139,4.742138671875001
1766000644548128800,6.672128662109375,1.101926326751709,1.4633092880249023,-0.4214012622833252,4.760919433593751
1766000644566909400,6.690909423828125,1.1074528694152832,1.7683067321777344,0.0004403889179229,4.7797001953125005
1766000644585690000,6.709690185546875,1.236839771270752,2.458498954772949,-0.2911009192466736,4.79848095703125
1766000644604471000,6.728470947265625,1.625770092010498,3.101104259490967,-0.8246898651123047,4.81726171875
1766000644623251700,6.747251708984375,2.0588021278381348,3.2141733169555664,-1.0400186777114868,4.83604248046875
1766000644642032400,6.766032470703125,2.3293561935424805,3.211653232574463,-1.0986042022705078,4.8548232421875
1766000644660813300,6.784813232421875,2.577220916748047,3.445345401763916,-1.1456719636917114,4.87360400390625
1766000644688984300,6.812984375,2.566894054412842,4.206065654754639,-0.7536900043487549,4.9017751464843755
1766000644707765200,6.83176513671875,2.443711280822754,4.222832202911377,-0.781561017036438,4.920555908203125
1766000644726546000,6.8505458984375,2.3859448432922363,3.857402801513672,-1.3252686262130735,4.939336669921875
1766000644745326800,6.869326904296875,2.6158547401428223,3.7674736976623535,-1.880533218383789,4.958117675781249
1766000644764107500,6.888107421875,2.6859335899353027,3.799758911132813,-2.0668773651123047,4.976898193359375
1766000644782888200,6.90688818359375,2.5953941345214844,3.4862332344055176,-1.8407050371170044,4.995678955078125
