time,seconds_elapsed,z,y,x,t
1766001874264721700,3.8817216796875,-0.1583666950464248,0.6886736750602722,-0.1610392332077026,2.056587646484375
1766001874283503000,3.900503173828125,-0.1750127524137497,0.6819541454315186,-0.2462548613548278,2.075369140625
1766001874302284800,3.919284912109375,-0.1817322671413421,0.2671769857406616,-0.1375209391117096,2.09415087890625
1766001874321066500,3.93806640625,-0.1615737378597259,0.3036761581897735,0.0797942131757736,2.112932373046875
1766001874339848200,3.95684814453125,-0.1496618688106537,0.3392590284347534,0.41928231716156,2.131714111328125
1766001874358629600,3.975629638671875,-0.0972802191972732,0.3233765363693237,0.8013782501220703,2.15049560546875
1766001874377411300,3.994411376953125,-0.1142317131161689,0.7535780668258667,1.1168898344039917,2.16927734375
1766001874396193000,4.013193115234375,-0.2083048969507217,1.3057998418807983,1.4533237218856812,2.18805908203125
1766001874414974700,4.031974609375,-0.4740310609340668,2.3415210247039795,3.4933066368103027,2.2068405761718752
1766001874433756200,4.050756103515625,0.0870482325553894,2.965519428253174,5.708913326263428,2.2256220703125003
1766001874452537900,4.069537841796875,-0.09491311013698575,3.571497201919556,2.3019676208496094,2.2444038085937503
1766001874471319600,4.088319580078125,-0.2768744528293609,1.0987166166305542,1.994091749191284,2.2631855468750004
1766001874490101200,4.107101318359375,1.1395682096481323,-2.02402400970459,1.936670422554016,2.2819672851562505
1766001874508882700,4.125882568359375,-0.6801979541778564,-1.1979821920394895,2.329151153564453,2.3007485351562504
1766001874527664400,4.144664306640625,0.1295033395290374,-0.1738673895597458,-0.4683042168617248,2.3195302734374996
1766001874546445800,4.16344580078125,0.1715002804994583,-1.1839323043823242,-1.1335359811782837,2.338311767578124
1766001874565227500,4.1822275390625,-0.9645555019378662,0.91041761636734,-1.2667044401168823,2.3570935058593743
1766001874584009200,4.20100927734375,-0.2342666387557983,2.087401390075684,-1.6139811277389526,2.3758752441406243
1766001874602790700,4.219790771484375,0.7089085578918457,-0.4365392327308655,-1.9630903005599976,2.3946567382812494
1766001874621572400,4.238572265625,-0.1840230077505111,-1.0191515684127808,-2.381838083267212,2.4134382324218744
1766001874640354000,4.25735400390625,-0.5381718873977661,-1.7706679105758667,-2.0976333618164062,2.4322199707031245
1766001874659135700,4.2761357421875,-0.2038761228322982,-1.3259583711624146,-1.9455279111862185,2.4510017089843745
1766001874677917200,4.294917236328125,0.019700389355421,-0.5275580883026123,-1.7431789636611938,2.4697832031249995
1766001874696699000,4.313698974609375,-0.1340848207473755,-0.0400880016386508,-1.528307318687439,2.4885649414062496
1766001874715480600,4.33248046875,-0.2541197538375854,0.756632387638092,-1.361846685409546,2.5073464355468746
1766001874734262000,4.351261962890625,-0.1488982886075973,1.3305398225784302,-1.2451715469360352,2.5261279296874997
1766001874753043700,4.370043701171875,-0.0410806573927402,1.4782164096832275,-1.139797329902649,2.5449096679687497
1766001874771825400,4.388825439453125,-0.1372918635606765,0.6324741244316101,-0.9768491387367249,2.56369140625
1766001874790606800,4.40760693359375,-0.0264199022203683,-0.5413025617599487,-0.6843976378440857,2.582472900390625
1766001874809388500,4.426388427734375,0.1354592591524124,-0.97837632894516,-0.3470475673675537,2.60125439453125
1766001874828170200,4.445170166015625,0.1212566569447517,-0.2483928948640823,-0.0868191570043563,2.6200361328125
1766001874846951700,4.46395166015625,0.0684168562293052,0.6769145131111145,0.1422551423311233,2.638817626953125
1766001874865733400,4.4827333984375,0.0763580948114395,0.8126792311668396,0.4061487317085266,2.657599365234375
1766001874884515000,4.50151513671875,0.1337793916463852,0.3210858106613159,0.7361684441566467,2.676381103515624
1766001874903296800,4.520296875,0.191964253783226,0.0179441533982753,1.1194860935211182,2.6951628417968743
1766001874922078200,4.539078125,0.2516762912273407,0.0978147238492965,1.589851975440979,2.7139440917968742
1766001874940860000,4.55785986328125,0.3338375985622406,0.1663842946290969,2.07442045211792,2.7327258300781243
1766001874959641600,4.5766416015625,0.3946186602115631,0.1938732117414474,2.300898551940918,2.7515075683593744
1766001874978423000,4.595423095703125,0.5213730931282043,0.001450803829357,2.414213895797729,2.7702890624999994
1766001875006595600,4.623595703125,0.4424188137054443,-0.4104247689247131,2.496986150741577,2.7984616699218745
1766001875025377300,4.642377197265625,0.3929387629032135,-0.0022143847309052,2.2413392066955566,2.8172431640624995
1766001875044158700,4.66115869140625,0.304974228143692,0.0811686590313911,2.289750337600708,2.8360246582031245
1766001875062940400,4.6799404296875,0.3497200906276703,-0.0717002525925636,1.6765947341918943,2.8548063964843746
1766001875081722000,4.69872216796875,0.1783725172281265,-0.0843756943941116,1.4722604751586914,2.8735881347656247
1766001875100503600,4.717503662109375,0.3871355652809143,-0.2488510459661483,1.0235803127288818,2.8923696289062497
1766001875119285200,4.73628515625,0.4097375571727752,0.029245151206851,0.6019308567047119,2.9111511230468747
1766001875138067000,4.75506689453125,0.0818558782339096,-0.7928261160850525,-0.535193920135498,2.929932861328125
1766001875156848600,4.7738486328125,-0.2689332067966461,-1.031521558761597,-1.5199079513549805,2.948714599609375
1766001875175630000,4.792630126953125,-0.0432186834514141,-0.9994511604309082,-2.508287191390991,2.96749609375
1766001875194411800,4.811411865234375,-0.0132863093167543,-1.1520146131515503,-3.3580000400543213,2.98627783203125
1766001875213193500,4.830193359375,-0.430506944656372,-1.9323943853378296,-4.397539138793945,3.005059326171875
1766001875231975000,4.848974853515625,-0.9182825088500975,-2.731100082397461,-5.456778526306152,3.0238408203125
1766001875250756600,4.867756591796875,-1.6308562755584717,-3.15610933303833,-5.353389739990234,3.042622558593749
1766001875269538300,4.886538330078125,-0.5809323787689209,-0.4012618064880371,-2.9697954654693604,3.0614042968749993
1766001875288319700,4.90531982421875,0.3477347791194916,0.1492800861597061,-0.7755692005157471,3.0801857910156243
1766001875307101400,4.924101318359375,0.1780670881271362,-0.0888044685125351,0.3006218373775482,3.0989672851562493
1766001875325883100,4.942883056640625,0.4062250852584839,-1.0299943685531616,1.0173189640045166,3.1177490234374994
1766001875344664800,4.961664794921875,0.3579667508602142,-0.475176453590393,0.9076687097549438,3.1365307617187494
1766001875363446300,4.9804462890625,0.0647516697645187,0.8163444399833679,0.3403280377388,3.1553122558593745
1766001875382228000,4.99922802734375,-0.0571158565580844,1.4287363290786743,-0.191735178232193,3.1740939941406245
1766001875401009700,5.018009765625,-0.0044287694618105,1.0750457048416138,-0.4237110912799835,3.1928757324218746
1766001875419791400,5.036791259765625,0.0268780495971441,0.2687041461467743,-0.3734674453735351,3.2116572265624996
1766001875438572800,5.05557275390625,0.1340848207473755,-0.6026944518089294,-0.1654679924249649,3.2304387207031247
1766001875457354500,5.0743544921875,0.1473711282014846,-0.7577013969421387,0.0967457070946693,3.2492204589843747
1766001875476136200,5.09313623046875,0.0745255053043365,-0.0972038581967353,0.3600284159183502,3.268002197265625
1766001875494918000,5.11191796875,-0.0659733936190605,0.7763327956199646,0.6595048904418945,3.286783935546875
1766001875513699300,5.13069921875,-0.2014326602220535,1.388419270515442,1.0022000074386597,3.305565185546875
1766001875532481000,5.14948095703125,-0.3092502951622009,1.761963129043579,1.7433316707611084,3.324346923828125
1766001875551262700,5.1682626953125,-0.393244206905365,3.150611400604248,4.814759731292725,3.343128662109375
1766001875570044400,5.18704443359375,1.708283305168152,3.925035238265991,4.088136196136475,3.361910400390624
1766001875588825900,5.205825927734375,1.330921649932861,1.6901865005493164,2.2323288917541504,3.380691894531249
1766001875607607600,5.224607666015625,0.1328630894422531,-1.9734749794006348,1.8679481744766235,3.3994736328124993
1766001875626389200,5.24338916015625,0.9642500281333924,-1.653076410293579,2.2376739978790283,3.4182551269531243
1766001875645170700,5.262170654296875,-1.133306860923767,1.8823034763336184,-0.0764344558119773,3.4370366210937493
1766001875663952400,5.280952392578125,-0.1843284517526626,0.723798394203186,-0.7757219076156616,3.4558183593749994
1766001875682734000,5.299734130859375,-0.2698495090007782,-1.6155083179473877,-1.3371065855026243,3.4746000976562494
1766001875701515500,5.318515625,0.0872009471058845,0.4218784868717193,-1.9485822916030884,3.4933815917968745
1766001875720297200,5.337297119140625,0.569173276424408,-0.6747764945030212,-2.1768929958343506,3.5121630859374995
1766001875739079000,5.356078857421875,-0.8100066781044006,-0.37270388007164,-2.431929111480713,3.5309448242187496
1766001875757860400,5.3748603515625,-1.2359321117401123,-0.2149480432271957,-2.172158718109131,3.5497263183593746
1766001875776642000,5.39364208984375,-0.2684750556945801,0.4887681901454925,-1.7737222909927368,3.5685080566406246
1766001875795423700,5.412423828125,0.0621554926037788,1.1390337944030762,-1.3555853366851809,3.5872897949218747
1766001875814205200,5.431205078125,-0.2176205813884735,0.8270345330238342,-0.9994511604309082,3.6060710449218747
1766001875832987000,5.44998681640625,-0.1295033395290374,0.7008909583091736,-0.8215367794036865,3.6248527832031248
1766001875851768600,5.4687685546875,0.2026543915271759,0.9217185974121094,-0.591088056564331,3.643634521484375
1766001875870550000,5.487550048828125,0.1058323234319686,0.7024181485176086,-0.2894735336303711,3.662416015625
1766001875889331700,5.506331787109375,0.0473420210182666,-0.3423133492469787,0.1184314116835594,3.68119775390625
1766001875908113400,5.525113525390625,0.2046397030353546,-0.9263001084327698,0.5457313060760498,3.6999794921875
1766001875926895000,5.54389501953125,0.2118173688650131,-0.6596575975418091,1.0286198854446411,3.718760986328125
1766001875945676500,5.562676513671875,0.1605047136545181,-0.2181550860404968,1.4447715282440186,3.73754248046875
1766001875964458200,5.581458251953125,0.2273944169282913,-0.0290924347937107,1.6052762269973757,3.756324218749999
1766001875983240000,5.600239990234375,0.2483165264129638,0.1285106837749481,1.728670954704285,3.7751059570312493
1766001876002021400,5.619021484375,0.2273944169282913,-0.073380134999752,1.830685377120972,3.7938874511718743
1766001876020803000,5.637802978515625,0.2466366589069366,-0.1581376194953918,1.985081434249878,3.8126689453124993
1766001876039584800,5.656584716796875,0.2383899837732315,0.025427246466279,2.1040472984313965,3.8314506835937494
1766001876058366200,5.6753662109375,0.2472475171089172,0.386601060628891,2.1072545051574707,3.8502321777343744
1766001876077148000,5.69414794921875,0.2043342739343643,0.5858956575393677,2.22286057472229,3.8690139160156245
1766001876095929600,5.7129296875,0.1852447390556335,0.325514554977417,2.172311544418335,3.8877956542968746
1766001876114711300,5.731711181640625,0.1661552190780639,0.2479347437620163,2.0029492378234863,3.9065771484374996
1766001876133492700,5.75049267578125,0.2208276242017746,0.0955239832401275,1.4609594345092771,3.9253586425781246
1766001876152274400,5.7692744140625,0.2393062710762024,0.0750600099563598,1.2915972471237185,3.9441403808593747
1766001876171056000,5.78805615234375,0.6808087825775146,-0.1246927753090858,0.7421243786811829,3.9629221191406248
1766001876189837600,5.806837646484375,0.5296197533607483,-0.3569740951061249,0.3371210098266601,3.9817036132812498
1766001876208619300,5.825619384765625,-0.0765108168125152,-0.5871174335479736,-1.185917615890503,4.000485351562499
1766001876227401000,5.84440087890625,-0.1017089858651161,-1.247156858444214,-1.904600024223328,4.019266845703125
1766001876246182400,5.863182373046875,-0.0632245019078254,-1.5006656646728516,-2.77569317817688,4.0380483398437494
