time,seconds_elapsed,z,y,x,t
1766001874285851000,3.902850830078125,0.4443140625953674,-9.395755767822266,0.3877577185630798,2.0565871582031248
1766001874304632600,3.921632568359375,2.409919261932373,-10.340444564819336,0.0970205068588256,2.075368896484375
1766001874323414000,3.9404140625,3.4764492511749268,-10.885143280029297,0.4970448017120361,2.094150390625
1766001874342195700,3.95919580078125,4.215779781341553,-10.105728149414062,0.4704164266586303,2.11293212890625
1766001874360977400,3.977977294921875,4.28691291809082,-9.840911865234377,0.658766508102417,2.131713623046875
1766001874379759000,3.996759033203125,3.8207082748413086,-9.66100788116455,1.9558424949646,2.150495361328125
1766001874398540800,4.015540771484375,3.9327778816223145,-9.541045188903809,3.07096791267395,2.169277099609375
1766001874417322200,4.034322265625,3.8833491802215576,-10.142167091369627,3.541867256164551,2.18805859375
1766001874436104000,4.05310400390625,-9.234655380249023,-14.595636367797852,7.244770526885986,2.20684033203125
1766001874454885600,4.0718857421875,-2.128795862197876,22.66168975830078,-6.485814571380615,2.2256220703125003
1766001874473667000,4.0906669921875,-13.232770919799805,24.326642990112305,1.1011264324188232,2.2444033203125002
1766001874492448800,4.10944873046875,1.336946725845337,0.1276082992553711,-2.0703587532043457,2.2631850585937503
1766001874511230500,4.12823046875,8.123461723327637,54.39522933959961,-0.4216281473636627,2.2819667968750004
1766001874530012000,4.147011962890625,-34.49992752075195,13.323396682739258,-1.5066075325012207,2.3007482910156254
1766001874548793600,4.165793701171875,-26.630170822143555,-11.368534088134766,9.50290870666504,2.3195300292968755
1766001874576966100,4.193966064453125,-9.359563827514648,-16.56032371520996,-3.89716100692749,2.3477023925781255
1766001874595747600,4.21274755859375,-2.103424549102783,4.732467651367188,-6.576969623565674,2.3664838867187505
1766001874614529300,4.231529296875,-4.694295883178711,19.833044052124023,-4.170352935791016,2.3852656250000006
1766001874633311000,4.25031103515625,2.965763568878174,-0.1116895675659179,1.8799612522125244,2.4040473632812507
1766001874652092400,4.269092529296875,1.4365898370742798,-8.682235717773438,1.4238264560699463,2.4228288574218757
1766001874670874000,4.2878740234375,2.2929608821868896,-9.15704345703125,0.5961339473724365,2.4416103515625007
1766001874689655800,4.30665576171875,4.157613754272461,-4.9477314949035645,2.2995405197143555,2.460392089843751
1766001874708437200,4.325437255859375,5.129558563232422,-1.0375900268554688,2.3620173931121826,2.479173583984376
1766001874727219000,4.344218994140625,4.4723663330078125,0.3425817489624023,0.4856399297714233,2.497955322265625
1766001874746000600,4.363000732421875,2.265378952026367,1.9107580184936523,-1.1690614223480225,2.516737060546875
1766001874764782300,4.3817822265625,1.4149962663650513,2.312957763671875,-2.351172924041748,2.5355185546875
1766001874792954600,4.40995458984375,4.055403709411621,-0.1548442840576172,-4.737142086029053,2.56369091796875
1766001874811736300,4.428736328125,6.129772663116455,-1.0249547958374023,-1.1080420017242432,2.58247265625
1766001874830518000,4.44751806640625,6.174715995788574,-1.2222223281860352,3.095444679260254,2.6012543945312503
1766001874849299500,4.466299560546875,5.257901668548584,-0.8029422760009766,3.529597282409668,2.6200358886718753
1766001874868081200,4.4850810546875,4.881018161773682,-0.3330030441284179,0.5977128148078918,2.6388173828125003
1766001874886862800,4.50386279296875,5.561720371246338,-0.1272258758544922,-1.7240211963653564,2.6575991210937504
1766001874905644300,4.522644287109375,7.012417793273926,-0.6315040588378906,-1.614539623260498,2.6763806152343754
1766001874924426000,4.541426025390625,8.764846801757812,-1.414140701293945,-1.0881415605545044,2.6951623535156255
1766001874943207700,4.560207763671875,9.40231227874756,-1.536420822143555,-1.3421834707260132,2.7139440917968756
1766001874961989000,4.578989013671875,6.474839687347412,-1.1071414947509766,-2.114418029785156,2.7327253417968755
1766001874980770800,4.597770751953125,3.350318431854248,-0.3199472427368164,-2.5949864387512207,2.7515070800781256
1766001875008943400,4.625943359375,2.0870399475097656,-1.5869197845458984,0.2792489230632782,2.7796796875000007
1766001875027724800,4.644724853515625,-2.4246480464935303,-1.5446267127990725,0.7662544250488281,2.7984611816406257
1766001875046506500,4.663506591796875,-2.6089608669281006,-4.098974227905273,1.7250159978866575,2.817242919921876
1766001875065288200,4.6822880859375,-5.6418304443359375,-4.332521438598633,1.097968816757202,2.8360244140625
1766001875084070000,4.70106982421875,-8.26036548614502,-7.352797508239746,2.7535502910614014,2.85480615234375
1766001875102851300,4.719851318359375,-8.264559745788574,-5.004428386688232,-0.768191933631897,2.873587646484375
1766001875121633000,4.738633056640625,-11.447477340698242,4.902976036071777,-2.044013738632202,2.892369384765625
1766001875140414700,4.757414794921875,-19.71479797363281,16.20360565185547,0.9630270600318908,2.911151123046875
1766001875159196200,4.776196044921875,-22.190975189208984,3.74454402923584,2.468357801437378,2.929932373046875
1766001875177977900,4.794977783203125,-22.86478614807129,3.674178123474121,2.927312135696411,2.948714111328125
1766001875196759600,4.813759521484375,-18.173694610595703,12.685962677001951,1.3715720176696775,2.9674958496093753
1766001875215541000,4.832541015625,-9.598770141601562,21.29258346557617,-2.1213550567626958,2.9862773437500003
1766001875234322700,4.85132275390625,-2.8737266063690186,12.02139377593994,0.5945433378219604,3.0050590820312504
1766001875253104400,4.8701044921875,3.848433017730713,-4.288830280303955,7.513258457183838,3.0238408203125005
1766001875271885800,4.8888857421875,14.675527572631836,-15.937256813049316,3.1166558265686035,3.0426220703125004
1766001875290667500,4.90766748046875,15.360286712646484,-15.44636058807373,0.2693716883659363,3.0614038085937505
1766001875309449200,4.92644921875,13.02228546142578,-9.24891757965088,3.692842483520508,3.0801855468750006
1766001875328231000,4.94523095703125,7.120637893676758,-11.66169261932373,-2.231553077697754,3.0989672851562506
1766001875347012400,4.964012451171875,-0.0925403237342834,-9.317441940307615,0.9757721424102784,3.1177487792968757
1766001875365794000,4.9827939453125,-4.019748687744141,-8.983329772949219,3.932091236114502,3.1365302734375007
1766001875384575700,5.00157568359375,-3.302281379699707,-8.300006866455078,1.8204498291015625,3.1553120117187508
1766001875403357400,5.020357421875,-0.1874111890792846,-9.663909912109377,-0.4837722778320312,3.17409375
1766001875422139000,5.039138916015625,2.2493906021118164,-9.966588973999023,-1.743716597557068,3.192875244140625
1766001875440920600,5.057920654296875,3.2515273094177246,-10.122902870178224,-2.419351816177368,3.211656982421875
1766001875459702300,5.076702392578125,3.099949598312378,-10.139272689819336,-0.2829852700233459,3.230438720703125
1766001875478483700,5.095483642578125,2.9818782806396484,-10.113463401794434,1.28059720993042,3.249219970703125
1766001875497265400,5.114265380859375,3.300390243530273,-9.941816329956056,1.8176441192626955,3.268001708984375
1766001875516047000,5.133047119140625,3.576119899749756,-9.910438537597656,1.0085101127624512,3.286783447265625
1766001875534828800,5.151828857421875,4.130342483520508,-9.747479438781738,0.6479111313819885,3.3055651855468753
1766001875553610200,5.1706103515625,2.1450300216674805,-10.005975723266602,2.169961929321289,3.3243466796875003
1766001875572392000,5.189391845703125,-17.338911056518555,1.355271339416504,0.746921956539154,3.3431281738281253
1766001875591173600,5.208173583984375,10.070009231567385,36.52851104736328,-1.3557007312774658,3.3619099121093754
1766001875609955300,5.226955322265625,-13.89527988433838,4.932908058166504,2.597567558288574,3.3806916503906255
1766001875628736800,5.24573681640625,10.819557189941406,5.244102478027344,-0.4865628778934479,3.3994731445312505
1766001875647518500,5.2645185546875,-29.59419250488281,54.24262237548828,-3.651771545410156,3.4182548828125006
1766001875666300200,5.283300048828125,-20.458274841308597,-4.245721340179443,5.932436466217041,3.4370363769531256
1766001875685081600,5.30208154296875,-15.19427490234375,-30.400863647460938,4.384206771850586,3.4558178710937506
1766001875703863300,5.32086328125,-9.282064437866213,-5.8987650871276855,-5.70819091796875,3.4745996093750007
1766001875722645000,5.33964501953125,-2.4276275634765625,11.421247482299805,-1.3116077184677124,3.4933813476562507
1766001875741426400,5.358426513671875,-0.4274113178253174,8.167496681213379,9.192204475402832,3.5121628417968758
1766001875760208100,5.3772080078125,2.435739755630493,-5.958495140075684,4.897434711456299,3.530944335937501
1766001875778989800,5.39598974609375,4.836231231689453,-10.959982872009276,-3.085626602172852,3.54972607421875
1766001875797771300,5.414771240234375,7.706766128540039,-7.073626518249512,-3.3893442153930664,3.568507568359375
1766001875816553000,5.433552978515625,9.148361206054688,-1.3229780197143557,-2.9880213737487797,3.587289306640625
1766001875835334700,5.452334716796875,7.108211517333984,1.166539192199707,-4.404108047485352,3.606071044921875
1766001875854116400,5.471116455078125,4.835355281829834,2.158812522888184,-1.5728750228881836,3.624852783203125
1766001875872897800,5.489897705078125,4.570406436920166,1.972700119018555,0.7498741149902344,3.643634033203125
1766001875891679500,5.508679443359375,6.966128349304199,1.0434160232543943,-1.5415163040161133,3.6624157714843752
1766001875910461200,5.527461181640625,8.420455932617188,-0.3842182159423828,-0.8861576914787292,3.6811975097656253
1766001875929242600,5.54624267578125,8.911955833435059,-0.4193401336669922,0.6966608762741089,3.6999790039062503
1766001875948024300,5.5650244140625,7.830069541931152,-0.5248737335205078,-0.4256021976470947,3.7187607421875004
1766001875966806000,5.583805908203125,4.668537139892578,-0.0269336700439453,-1.9148082733154297,3.7375422363281254
1766001875985587500,5.60258740234375,2.154071807861328,-1.0043926239013672,-1.7934918403625488,3.7563237304687505
1766001876004369200,5.621369140625,0.7899484634399414,-2.4884042739868164,-1.5009503364562988,3.7751054687500005
1766001876023150800,5.64015087890625,1.952747464179993,-2.745795249938965,-0.1474836468696594,3.7938872070312506
1766001876041932500,5.6589326171875,2.6438751220703125,-2.912504196166992,1.8339166641235352,3.8126689453125007
1766001876060714000,5.6777138671875,2.596442461013794,-1.811265468597412,2.0533413887023926,3.8314501953125006
1766001876079495700,5.69649560546875,2.550869464874268,-0.1527929306030273,1.5123263597488403,3.8502319335937507
1766001876098277400,5.71527734375,1.240957736968994,1.234518051147461,0.1676809042692184,3.869013671875001
1766001876117058800,5.734058837890625,-2.2534422874450684,-0.6905889511108398,-0.0977436751127243,3.887795166015626
1766001876135840500,5.752840576171875,-8.027612686157227,-5.690672874450684,-0.6410108804702759,3.906576904296875
1766001876154622200,5.771622314453125,-8.218608856201172,-13.47922706604004,-0.2166098356246948,3.925358642578125
1766001876173403600,5.790403564453125,-9.271421432495115,-4.142530918121338,-1.896717190742493,3.944139892578125
1766001876192185300,5.809185302734375,-13.355249404907228,13.223062515258787,-1.044087290763855,3.962921630859375
1766001876210967000,5.827967041015625,-22.72415351867676,17.150962829589844,0.1598230451345443,3.981703369140625
1766001876229748500,5.84674853515625,-22.45718002319336,0.2388391494750976,2.4097673892974854,4.00048486328125
1766001876248530200,5.8655302734375,-21.40806007385254,5.752762794494629,4.790877819061279,4.0192666015625
1766001876267311900,5.884311767578125,-15.39828109741211,18.59856605529785,3.833574771881104,4.038048095703125
1766001876286093300,5.90309326171875,-6.870450973510742,18.667007446289062,-0.4873600602149963,4.05682958984375
