time,seconds_elapsed,z,y,x,t
1766001880493176300,10.11017626953125,-0.1792277097702026,-1.258622169494629,0.5462380647659302,8.26391259765625
1766001880511957800,10.128957763671876,0.808430552482605,-3.03385066986084,-0.4339935779571533,8.282694091796875
1766001880530739500,10.147739501953126,1.188212513923645,-2.2652692794799805,0.7127054929733276,8.301475830078125
1766001880558912000,10.175912109375,2.4042718410491943,-0.2997817993164062,2.356055974960327,8.3296484375
1766001880577693400,10.194693359375,4.626387119293213,-0.0545358657836914,0.2183472067117691,8.3484296875
1766001880596475100,10.21347509765625,7.7109456062316895,0.1648988723754882,0.0422577857971191,8.36721142578125
1766001880615256800,10.2322568359375,11.69217586517334,1.3738536834716797,-1.544094204902649,8.3859931640625
1766001880634038500,10.25103857421875,12.871160507202148,3.942315101623535,-2.696223020553589,8.40477490234375
1766001880652820000,10.269820068359374,8.468503952026367,2.478670120239258,-1.2896569967269895,8.423556396484374
1766001880671601700,10.2886015625,4.996628761291504,0.2792339324951172,-0.2156430184841156,8.442337890625
1766001880690383400,10.30738330078125,3.347273349761963,1.556370735168457,-1.4006835222244265,8.46111962890625
1766001880709164800,10.326164794921874,0.2537660598754883,2.097938537597656,-2.418313503265381,8.479901123046874
1766001880727946500,10.344946533203125,-1.6126108169555664,-0.2483291625976562,0.1130092367529869,8.498682861328124
1766001880746728200,10.363728271484376,-4.721983909606934,-5.233490943908691,2.4244139194488525,8.517464599609376
1766001880765510000,10.382510009765625,-9.12037754058838,-16.18069839477539,4.291209220886231,8.536246337890624
1766001880784291300,10.401291259765625,-12.096881866455078,-18.588029861450195,0.0118635892868042,8.555027587890624
1766001880803073000,10.420072998046876,-13.352410316467283,-8.52375602722168,3.818963050842285,8.573809326171876
1766001880821854700,10.438854736328125,-12.088600158691406,6.554854393005371,1.5201106071472168,8.592591064453124
1766001880840636200,10.45763623046875,-16.339767456054688,44.9493408203125,4.541373252868652,8.61137255859375
1766001880859417900,10.47641796875,-16.904678344726562,8.70109748840332,-4.838522434234619,8.630154296875
1766001880878199600,10.495199462890625,-17.368240356445312,3.042774200439453,-0.9139724373817444,8.648935791015624
1766001880896981000,10.51398095703125,-11.454717636108398,17.178003311157227,-2.023421287536621,8.66771728515625
1766001880915762700,10.5327626953125,-4.383496284484863,15.016849517822266,0.0745782554149627,8.6864990234375
1766001880934544400,10.55154443359375,2.536189556121826,-1.58642578125,7.065390586853027,8.705280761718749
1766001880962716700,10.579716552734377,13.635278701782228,-13.977609634399414,4.432629585266113,8.733452880859376
1766001880981498400,10.598498291015623,12.053457260131836,-12.530729293823242,2.6505494117736816,8.752234619140623
1766001881000280000,10.617280029296875,8.773488998413086,-8.33617877960205,-0.7816011309623718,8.771016357421875
1766001881019061800,10.636061767578123,3.310588359832764,-10.179880142211914,-1.8292696475982664,8.789798095703123
1766001881037843200,10.65484326171875,1.0793235301971436,-9.155695915222168,-0.4843859672546386,8.808579589843749
1766001881056625000,10.673625,0.1292565762996673,-9.165152549743652,2.244703531265259,8.827361328124999
1766001881075406600,10.692406494140624,0.6713147163391113,-9.813922882080078,2.850239515304565,8.846142822265623
1766001881094188300,10.711188232421875,1.437238097190857,-10.139650344848633,1.6705633401870728,8.864924560546875
1766001881112969700,10.7299697265625,1.964508056640625,-9.847705841064451,0.3194767832756042,8.883706054687499
1766001881131751400,10.74875146484375,2.2412543296813965,-10.105972290039062,-0.6155479550361633,8.90248779296875
1766001881150533000,10.767533203125,2.510151624679565,-10.436662673950195,-0.1632589101791381,8.92126953125
1766001881169314800,10.786314697265626,2.507251501083374,-10.558077812194824,0.8132630586624146,8.940051025390625
1766001881188096300,10.80509619140625,2.5074188709259038,-10.36430549621582,1.456637620925903,8.95883251953125
1766001881206878000,10.8238779296875,3.194718599319458,-10.762451171875,1.9332709312438965,8.9776142578125
1766001881225659600,10.84265966796875,1.76142418384552,-10.643574714660645,-0.0116209387779235,8.99639599609375
1766001881244441300,10.86144140625,4.501223087310791,-12.940217971801758,-1.7541866302490234,9.015177734375
1766001881263222800,10.880222900390624,-13.197367668151855,12.743021965026855,-5.711953163146973,9.033959228515624
1766001881282004500,10.89900439453125,5.46901798248291,43.29983901977539,8.341575622558594,9.05274072265625
1766001881300786200,10.9177861328125,-12.155627250671388,5.212176322937012,1.2219746112823486,9.0715224609375
1766001881319567600,10.936567626953124,-5.841336727142334,8.054006576538086,5.323263168334961,9.090303955078124
1766001881338349300,10.955349365234374,-23.17832565307617,48.24091339111328,5.073938846588135,9.109085693359374
1766001881357131000,10.974131103515624,-8.69428825378418,0.6108217239379883,-0.4245699644088745,9.127867431640624
1766001881375912700,10.99291259765625,-10.663572311401367,-8.360845565795898,-13.504545211791992,9.14664892578125
1766001881394694100,11.011694091796874,-3.8149619102478023,-0.7232599258422852,-10.537676811218262,9.165430419921874
1766001881413475800,11.030475830078124,0.0482137203216552,1.2415952682495115,-3.112908124923706,9.184212158203124
1766001881432257500,11.049257568359376,2.642353057861328,-3.892912387847901,4.196402072906494,9.202993896484376
1766001881451039000,11.0680390625,3.3541042804718018,-6.766536235809326,7.710123062133789,9.221775390625
1766001881469820700,11.086820556640625,4.117965698242188,-5.821687698364258,8.409590721130371,9.240556884765624
1766001881488602400,11.105602294921876,4.281857013702393,-4.076939105987549,6.976192951202393,9.259338623046876
1766001881507384000,11.124384033203125,3.715211391448975,-3.841197967529297,2.445392370223999,9.278120361328124
1766001881526165800,11.143165771484377,2.4228689670562744,-3.4711947441101074,-3.160268545150757,9.296902099609376
1766001881544947200,11.161947265625,1.3000013828277588,-1.2466306686401367,-4.013855457305908,9.31568359375
1766001881563729000,11.18072900390625,0.6389923095703125,1.3422470092773438,-2.6802403926849365,9.33446533203125
1766001881582510600,11.199510498046877,1.094820857048035,2.754036903381348,-3.0653390884399414,9.353246826171876
1766001881601292300,11.218292236328123,2.189908981323242,2.2849197387695312,-3.022637367248535,9.372028564453123
1766001881620073700,11.23707373046875,3.039762496948242,1.095724105834961,-2.2074668407440186,9.390810058593749
1766001881638855400,11.25585546875,3.394558906555176,0.3600778579711914,-0.5464540719985962,9.409591796874999
1766001881657637000,11.27463720703125,2.922762393951416,-0.5571146011352539,0.6336584687232971,9.428373535156249
1766001881676418600,11.29341845703125,2.093219995498657,-0.4269866943359375,1.576028823852539,9.447154785156249
1766001881695200300,11.3122001953125,1.745546817779541,-0.3527717590332031,1.955913782119751,9.465936523437499
1766001881713982000,11.33098193359375,1.1062357425689695,-0.9615201950073242,0.8508056998252869,9.484718261718749
1766001881732763600,11.349763671875,1.2888567447662354,-3.1557302474975586,0.7636044025421143,9.503499999999999
1766001881751545300,11.36854541015625,-0.2125663757324218,-5.154275894165039,2.422842025756836,9.522281738281249
1766001881770326800,11.387326904296875,0.9732155799865724,-5.467350006103516,3.2921316623687744,9.541063232421875
1766001881789108500,11.4061083984375,0.8204741477966309,-1.5304131507873535,2.1521003246307373,9.559844726562499
1766001881807890200,11.42489013671875,-0.8817858695983887,-0.2588748931884765,1.774058222770691,9.57862646484375
1766001881826671900,11.443671875,-3.479735374450684,-3.5465245246887207,0.5395917296409607,9.597408203125
1766001881845453300,11.462453369140626,-5.0282979011535645,-10.096854209899902,1.35603129863739,9.616189697265625
1766001881864235000,11.481235107421876,-9.662714004516602,-5.039298534393311,1.8977426290512085,9.634971435546875
1766001881883016700,11.5000166015625,-14.326122283935549,4.10063362121582,2.15803599357605,9.6537529296875
1766001881901798100,11.518798095703126,-17.525182723999023,19.09774780273437,2.25652813911438,9.672534423828125
1766001881920579800,11.537579833984376,-18.96459197998047,23.082109451293945,-0.5136004686355591,9.691316162109375
1766001881939361500,11.556361572265626,-17.878244400024414,16.166400909423828,-3.5374796390533447,9.710097900390625
1766001881958143000,11.57514306640625,-11.26848030090332,18.642822265625,-5.63291072845459,9.72887939453125
1766001881976924700,11.593924560546874,-1.7320966720581057,13.317234992980955,-4.879533767700195,9.747660888671874
1766001881995706400,11.612706298828124,8.078454971313477,-3.8605127334594727,2.014671087265014,9.766442626953124
1766001882014488000,11.631488037109374,15.150338172912598,-15.05178928375244,2.612051248550415,9.785224365234374
1766001882033269500,11.65026953125,15.926359176635742,-14.619396209716797,7.752758026123047,9.804005859375
1766001882052051200,11.66905126953125,8.341756820678711,-7.214919090270996,5.449777126312256,9.82278759765625
1766001882070833000,11.6878330078125,2.3525705337524414,-8.974483489990234,1.557742714881897,9.8415693359375
1766001882089614600,11.706614501953124,0.7556753158569336,-8.810495376586914,-3.117937564849853,9.860350830078124
1766001882108396000,11.72539599609375,-0.6318472623825073,-8.359549522399902,-2.2480669021606445,9.87913232421875
1766001882127177700,11.744177734375,-0.6966347694396973,-9.37616729736328,0.9405214190483092,9.8979140625
1766001882145959400,11.76295947265625,0.385978490114212,-9.616089820861816,1.638886570930481,9.91669580078125
1766001882164741000,11.7817412109375,1.1407701969146729,-9.400668144226074,0.0783494412899017,9.9354775390625
1766001882183522600,11.8005224609375,1.4278544187545776,-9.60576057434082,-1.7811386585235596,9.9542587890625
1766001882202304300,11.81930419921875,1.739766001701355,-9.814067840576172,-1.918411135673523,9.97304052734375
1766001882221086000,11.8380859375,1.948060750961304,-9.766526222229004,-0.0528682470321655,9.991822265625
1766001882239867600,11.85686767578125,2.4191718101501465,-10.544885635375977,1.3442599773406982,10.01060400390625
1766001882258649000,11.875649169921877,3.800971031188965,-10.890413284301758,-0.1004303693771362,10.029385498046876
1766001882277430800,11.8944306640625,4.97216272354126,-10.694369316101074,0.4625974595546722,10.0481669921875
1766001882296212500,11.91321240234375,4.33798885345459,-11.009723663330078,1.7396819591522217,10.066948730468749
1766001882314994000,11.931993896484377,6.481441020965576,-12.001846313476562,4.044501304626465,10.085730224609376
1766001882333775600,11.950775634765623,-22.517799377441406,2.024073600769043,7.976853370666504,10.104511962890623
1766001882352557300,11.969557373046875,-5.07956075668335,31.89975357055664,6.575888156890869,10.123293701171875
1766001882371339000,11.988339111328123,9.84860897064209,14.715258598327637,8.493675231933594,10.142075439453123
1766001882390120400,12.007120361328123,-5.970290184020996,67.40909576416016,7.5347816944122314,10.160856689453123
1766001882408902100,12.025902099609375,-30.481040954589844,3.209490776062012,3.8273754119873047,10.179638427734375
1766001882427683800,12.044683837890624,-21.47398567199707,-33.17015838623047,11.510723114013672,10.198420166015623
1766001882446465300,12.06346533203125,-13.83017921447754,-21.771160125732425,-11.293886184692385,10.217201660156249
1766001882465247000,12.0822470703125,-5.754100799560547,5.188899993896484,-7.560319900512695,10.235983398437499
1766001882484028700,12.101028564453124,-3.5101146697998047,22.614147186279297,0.835678219795227,10.254764892578123
