time,seconds_elapsed,z,y,x,t
1766001810252647200,1.511647216796875,0.2791652083396911,-2.136728525161743,-1.8367940187454224,0.0
1766001810271428400,1.530428466796875,-0.4766272306442261,-0.6888263821601868,-2.103131055831909,0.01878124999999997
1766001810290209800,1.549209716796875,-0.6108647584915161,-0.104534238576889,-1.824576735496521,0.03756249999999994
1766001810308991200,1.5679912109375,-0.2304487377405166,0.2971093654632568,-1.6222277879714966,0.056343994140624964
1766001810327772400,1.5867724609375,-0.0864373669028282,0.1217911690473556,-1.3878084421157837,0.07512524414062494
1766001810346553900,1.605553955078125,-0.1624900251626968,-0.6779835224151611,-1.1005492210388184,0.09390673828124996
1766001810365335300,1.624335205078125,-0.0956003367900848,-0.6089558005332947,-0.880179762840271,0.11268798828124993
1766001810384116500,1.643116455078125,-0.0332921296358108,0.1152243688702583,-0.7442623972892761,0.1314692382812499
1766001810402898000,1.66189794921875,0.0326812639832496,0.6792052984237671,-0.6879100799560547,0.15025073242187492
1766001810421679000,1.68067919921875,0.0039706211537122,0.4599048197269439,-0.7416661977767944,0.1690319824218749
1766001810440460500,1.69946044921875,-0.0583375878632068,-0.3710239827632904,-0.6475930213928223,0.18781323242187486
1766001810459242000,1.718241943359375,0.1076649203896522,-1.0290781259536743,-0.3560578227043152,0.2065947265624999
1766001810478023200,1.737023193359375,0.231212317943573,-0.9214131832122804,-0.0489455386996269,0.22537597656249986
1766001810496804600,1.7558046875,0.1704312711954116,0.004657844081521,0.2306778132915496,0.24415747070312488
1766001810515586000,1.7745859375,0.0520762242376804,0.8445969223976135,0.5083158612251282,0.26293872070312485
1766001810534367200,1.7933671875,0.1276707351207733,0.7813724279403687,0.7021127343177795,0.2817199707031248
1766001810553148700,1.812148681640625,0.194254994392395,0.5151880979537964,0.8974367380142212,0.30050146484374984
1766001810571930000,1.83093017578125,0.2040288299322128,0.2807687222957611,1.070311427116394,0.31928295898437486
1766001810590711300,1.849711181640625,0.2391535639762878,0.409050315618515,1.1894301176071167,0.33806396484375
1766001810609492700,1.86849267578125,0.2174678593873977,0.5374846458435059,1.334052324295044,0.3568454589843748
1766001810628274200,1.887274169921875,0.1814268380403518,0.6318632364273071,1.484630465507507,0.37562695312499983
1766001810647055400,1.906055419921875,0.2047924101352691,0.7387645840644836,1.6153554916381836,0.394408203125
1766001810665836800,1.9248369140625,0.1304196268320083,0.99257892370224,1.8587851524353027,0.4131896972656248
1766001810684618200,1.9436181640625,0.0368046015501022,0.917747974395752,2.0253984928131104,0.431970947265625
1766001810703399400,1.9623994140625,0.11743875592947,0.8983530402183533,2.0263147354125977,0.450752197265625
1766001810722180900,1.981180908203125,0.1783725172281265,0.5402335524559021,2.086484909057617,0.46953369140625
1766001810740962300,1.99996240234375,0.1452330946922302,0.1941786408424377,1.7848705053329468,0.4883151855468748
1766001810759743500,2.018743408203125,-0.1408043354749679,-0.0972038581967353,1.7524946928024292,0.5070961914062497
1766001810778525000,2.03752490234375,0.1453858166933059,-0.0020616685505956,1.4171298742294312,0.5258776855468748
1766001810797306400,2.056306396484375,0.7939714789390564,-0.0619264170527458,1.149571180343628,0.5446591796874998
1766001810816087600,2.075087646484375,0.8869756460189819,-0.4631118476390838,0.73830646276474,0.5634404296874997
1766001810834869000,2.093868896484375,0.3568977415561676,-0.5188532471656799,0.3337612450122833,0.5822216796874997
1766001810853650400,2.112650390625,-0.1963930279016494,-0.7677806615829468,-0.4527271687984466,0.6010031738281247
1766001810872431600,2.131431640625,-0.1375972926616668,-0.8516218662261963,-1.3178644180297852,0.6197844238281247
1766001810891213000,2.150213134765625,-0.0250454563647508,-0.8774309158325195,-2.200258493423462,0.6385659179687495
1766001810909994500,2.168994384765625,-0.3098611533641815,-1.204243540763855,-3.166952133178711,0.6573471679687495
1766001810928775700,2.187775634765625,-0.2489273995161056,-1.6361249685287476,-4.145252227783203,0.6761284179687499
1766001810947557000,2.20655712890625,-0.3599520623683929,-1.7175227403640747,-5.250153541564941,0.6949099121093749
1766001810966338600,2.225338623046875,-1.4043781757354736,-2.2799763679504395,-5.5050368309021,0.7136914062499995
1766001810985119700,2.24411962890625,-1.1195623874664309,-0.1743255406618118,-3.569664716720581,0.7324724121093749
1766001811013292000,2.2722919921875,0.0956003367900848,2.244699001312256,-1.2925134897232056,0.7606447753906249
1766001811032073200,2.2910732421875,0.0745255053043365,0.6659189462661743,-0.4282925724983215,0.7794260253906249
1766001811050854700,2.309854736328125,0.351705402135849,-1.0341176986694336,0.1764635592699051,0.7982075195312499
1766001811069636000,2.328635986328125,0.3825540542602539,-0.921871304512024,0.3220020830631256,0.8169887695312499
1766001811088417300,2.347417236328125,0.168904110789299,-0.1970802545547485,0.2146426141262054,0.8357700195312499
1766001811107198700,2.36619873046875,0.1175914704799652,-0.1482110619544983,0.0125990863889455,0.8545515136718749
1766001811125980200,2.384980224609375,0.1127045527100563,-0.3792706727981567,-0.1698967665433883,0.8733330078124999
1766001811144761300,2.40376123046875,0.0891862586140632,-0.2963457703590393,-0.2451858520507812,0.8921140136718748
1766001811163542800,2.422542724609375,0.0671951249241828,-0.1416442692279815,-0.1543197184801101,0.9108955078124998
1766001811182324200,2.44132421875,0.0455094277858734,-0.0465020798146724,0.0545960403978824,0.9296770019531249
1766001811201105700,2.460105712890625,0.0296269413083791,0.169133186340332,0.29374960064888,0.9484584960937499
1766001811219886800,2.478886962890625,-0.0624609254300594,0.691575288772583,0.5249619483947754,0.9672397460937499
1766001811238668300,2.497668212890625,-0.1594357043504715,1.0820705890655518,0.8209258913993835,0.9860209960937498
1766001811257449700,2.51644970703125,-0.2469420880079269,1.4241548776626587,1.170493245124817,1.0048024902343748
1766001811276231000,2.53523095703125,-0.425467312335968,2.7155230045318604,3.9317548274993896,1.0235837402343748
1766001811295012400,2.554012451171875,0.9746347665786744,3.045695543289185,4.786965370178223,1.0423652343749998
1766001811313793800,2.572793701171875,0.2745837271213532,2.4079525470733643,2.148029565811157,1.0611464843749998
1766001811332575000,2.591574951171875,-0.6017017960548401,0.9443206191062928,2.175671339035034,1.0799277343749998
1766001811351356400,2.6103564453125,1.3808598518371582,-1.0273982286453247,1.7798309326171875,1.0987092285156248
1766001811370137900,2.629137939453125,-0.5143481492996216,-0.2745073735713959,1.461112141609192,1.1174907226562498
1766001811388919000,2.6479189453125,-0.6528617143630981,1.1167371273040771,-0.1914297491312027,1.1362717285156247
1766001811407700500,2.666700439453125,0.1548542231321334,-0.4348593652248382,-0.9133192300796508,1.1550532226562498
1766001811426482000,2.68548193359375,0.0308486707508564,-0.3711767196655273,-1.293277144432068,1.1738347167968748
1766001811445263000,2.70426318359375,0.037720900028944,-0.6471349000930786,-1.5849649906158447,1.1926159667968748
1766001811464044500,2.72304443359375,0.3546070158481598,-2.2486696243286133,-1.8775691986083984,1.2113972167968747
1766001811482826000,2.741825927734375,-0.1386663019657135,-1.8349614143371584,-1.9675190448760984,1.2301787109374998
1766001811501607200,2.760607177734375,-0.5798633694648743,-0.9101121425628662,-1.7951024770736694,1.2489599609374997
1766001811520388600,2.779388671875,-0.3407098352909088,0.1011744812130928,-1.478369116783142,1.2677414550781247
1766001811539170000,2.798170166015625,-0.0473420210182666,0.8461240530014038,-1.1347576379776,1.2865229492187498
1766001811557951200,2.816951171875,-0.0746782198548317,0.8904117941856384,-0.8190932869911194,1.3053039550781247
1766001811576732700,2.835732666015625,-0.0729983374476432,1.0438915491104126,-0.548480212688446,1.3240854492187497
1766001811595514000,2.85451416015625,0.0387899130582809,1.2324960231781006,-0.4990001618862152,1.3428669433593747
1766001811614295300,2.87329541015625,-0.0149661870673298,1.1463640928268433,-0.5286270976066589,1.3616481933593747
1766001811633076700,2.89207666015625,-0.0652098134160041,0.524503767490387,-0.2876409590244293,1.3804294433593747
1766001811651858200,2.910858154296875,0.0839939042925834,-0.2241110205650329,-0.0264962594956159,1.3992109374999997
1766001811670639400,2.929639404296875,0.0902552679181099,-0.5913934707641602,0.114460788667202,1.4179921874999997
1766001811689420800,2.9484208984375,0.0667369738221168,-0.5446622967720032,0.0852919965982437,1.4367736816406247
1766001811708202200,2.9672021484375,0.0282524954527616,-0.5182424187660217,0.0040469793602824,1.4555549316406247
1766001811726983400,2.9859833984375,0.0525343716144561,-0.2964984774589538,-0.05337430909276,1.4743361816406246
1766001811745764900,3.004764892578125,0.0555886961519718,0.1567631810903549,-0.132175862789154,1.4931176757812497
1766001811764546300,3.02354638671875,-0.0291687939316034,0.266107976436615,-0.1083521395921707,1.5118991699218747
1766001811783327500,3.042327392578125,0.057421289384365,0.0623845644295215,0.0199294630438089,1.5306801757812496
1766001811802109000,3.06110888671875,0.0998763889074325,-0.3931678533554077,0.1326340138912201,1.5494616699218746
1766001811820890400,3.079890380859375,0.1229365393519401,-0.5707767605781555,0.3200167715549469,1.5682431640624996
1766001811839671600,3.098671630859375,0.1543960720300674,-0.3694968223571777,0.6152172088623047,1.5870244140624996
1766001811858453000,3.117452880859375,0.13423752784729,-0.2100611329078674,0.9434043169021606,1.6058056640624996
1766001811877234400,3.136234375,0.1808159798383712,-0.0333684869110584,1.2366193532943726,1.6245871582031246
1766001811896015600,3.155015625,0.1997527778148651,0.2679405510425567,1.4331650733947754,1.6433684082031246
1766001811914797000,3.173797119140625,0.2009745091199875,0.7772490978240967,1.62909996509552,1.6621499023437496
1766001811933578500,3.19257861328125,0.1493564397096634,0.9849430918693542,1.9117777347564695,1.6809313964843746
1766001811952360000,3.21135986328125,0.1233946830034256,0.981277883052826,2.1767401695251465,1.6997126464843746
1766001811971141000,3.23014111328125,0.2026543915271759,0.7900772094726562,2.2492804527282715,1.7184938964843746
1766001811989922600,3.248922607421875,0.370031327009201,0.3931678533554077,2.199800491333008,1.7372753906249996
1766001812008704000,3.2677041015625,0.402865320444107,-0.2966512143611908,1.853592872619629,1.7560568847656246
1766001812027485200,3.286485107421875,0.0238237269222736,-0.830547034740448,1.2312743663787842,1.7748378906249995
1766001812046266600,3.3052666015625,-0.0829248949885368,-0.4623482823371887,0.6738601922988892,1.7936193847656245
1766001812065048000,3.324048095703125,0.4508182108402252,0.1576794683933258,0.2929860055446625,1.8124008789062496
1766001812083829200,3.342829345703125,0.8709404468536377,-0.2902371287345886,-0.3691914081573486,1.8311821289062495
1766001812102610700,3.361610595703125,-0.870482325553894,0.062537282705307,-1.9359068870544436,1.8499633789062495
1766001812121392000,3.38039208984375,-0.5827649831771851,-0.1784488707780838,-2.32090425491333,1.8687448730468745
1766001812140173300,3.39917333984375,-0.1928805559873581,-0.6213258504867554,-3.1605379581451416,1.8875261230468745
1766001812158954800,3.417954833984375,-0.887891948223114,-1.7754020690917969,-4.218250274658203,1.9063076171874995
1766001812177736200,3.436736083984375,-1.198974847793579,-2.986288785934448,-4.961367607116699,1.9250888671874995
1766001812196517400,3.455517333984375,-1.215773582458496,-3.3919031620025635,-4.215654373168945,1.9438701171875
1766001812215298800,3.474298828125,-0.1400407552719116,-1.2862521409988403,-2.0615923404693604,1.9626516113281245
1766001812234080300,3.493080322265625,0.0293215103447437,0.5249619483947754,-0.4565450549125671,1.9814331054687495
