time,seconds_elapsed,z,y,x,t
1766001812187126800,3.446126708984375,3.9575424194335938,-6.156795501708984,1.0794904232025146,1.9908234863281247
1766001812205908200,3.464908203125,13.508782386779783,-16.1795654296875,3.0116357803344727,2.0096049804687497
1766001812224689700,3.483689697265625,13.755038261413574,-12.356050491333008,6.420386791229248,2.0283864746093747
1766001812243470800,3.502470947265625,11.275659561157228,-9.95263957977295,0.8443811535835266,2.0471677246093747
1766001812262252300,3.521252197265625,6.206089019775391,-10.021442413330078,-2.546442985534668,2.065948974609375
1766001812281033700,3.54003369140625,-0.0947227478027343,-8.498366355895996,0.8344478607177734,2.0847304687499997
1766001812299815200,3.558815185546875,-2.361319303512573,-9.740764617919922,2.736515760421753,2.1035119628906247
1766001812327987200,3.5869873046875,-1.2585299015045166,-9.07130527496338,1.8435063362121584,2.1316840820312497
1766001812346768400,3.605768310546875,0.5230690240859985,-9.366644859313965,1.3234134912490845,2.150465087890625
1766001812365549800,3.6245498046875,2.164982795715332,-9.33592700958252,0.9501492381095886,2.16924658203125
1766001812384331300,3.643331298828125,3.224081754684448,-9.762503623962402,0.8356548547744751,2.1880280761718747
1766001812403112400,3.662112548828125,3.5123112201690674,-9.979713439941406,1.4709084033966064,2.206809326171875
1766001812421894000,3.680893798828125,3.551087617874145,-10.290024757385254,2.231284141540528,2.225590576171875
1766001812440675300,3.69967529296875,3.2890772819519043,-10.343266487121582,2.1202962398529053,2.2443720703125
1766001812459456800,3.718456787109375,2.5049474239349365,-10.32313346862793,-0.4218800067901611,2.263153564453125
1766001812478238000,3.737238037109375,3.94569730758667,-14.32944679260254,2.1442384719848637,2.281934814453125
1766001812497019400,3.756019287109375,-4.961214542388916,18.124425888061523,3.9357211589813232,2.300716064453125
1766001812515800800,3.77480078125,-0.2583427429199219,33.63641357421875,2.9130423069000244,2.31949755859375
1766001812534582300,3.793582275390625,-1.846137523651123,6.166439056396484,-6.036072731018066,2.338279052734375
1766001812562754300,3.82175439453125,-9.20120906829834,37.64617156982422,-1.5450278520584106,2.366451171875
1766001812590926300,3.84992626953125,-18.913841247558597,-3.4286766052246094,-0.2774467766284942,2.394623046875
1766001812609707500,3.86870751953125,-13.28993320465088,-12.741410255432127,0.4414715766906738,2.413404296875
1766001812628489000,3.887489013671875,-5.966967105865479,-6.241574287414551,1.648613691329956,2.432185791015625
1766001812647270400,3.9062705078125,-1.368429183959961,1.9091053009033203,3.082094669342041,2.45096728515625
1766001812666051600,3.925051513671875,-0.3570671081542969,4.131712913513184,6.059077739715576,2.469748291015625
1766001812684833000,3.9438330078125,1.4294450283050537,-1.682608127593994,5.427429676055908,2.48852978515625
1766001812703614500,3.962614501953125,3.010998249053955,-6.536762237548828,1.5381807088851929,2.507311279296875
1766001812722396000,3.98139599609375,4.540886878967285,-7.565276145935059,-1.7146528959274292,2.5260927734375
1766001812741177000,4.000177001953125,5.134702682495117,-5.263862133026123,-2.8685314655303955,2.5448737792968745
1766001812759958500,4.01895849609375,3.349137306213379,-1.4385299682617188,-1.991230010986328,2.5636552734374995
1766001812778740000,4.037739990234375,1.281588792800903,3.549849510192871,-2.5134263038635254,2.5824367675781246
1766001812797521200,4.056521240234375,-1.4218862056732178,8.478818893432617,-3.5936317443847656,2.6012180175781245
1766001812816302600,4.075302490234375,-0.9972164630889891,5.505564689636231,-1.7666947841644287,2.6199992675781245
1766001812835083800,4.094083740234375,1.2537047863006592,-0.9934167861938475,0.7005451321601868,2.6387805175781245
1766001812853865200,4.112865234375,3.913196086883545,-3.659210681915283,1.1622474193572998,2.6575620117187495
1766001812872646700,4.131646728515625,5.227245807647705,-1.3446598052978516,1.240138053894043,2.6763435058593745
1766001812891428000,4.150427978515625,5.297272682189941,-0.0317239761352539,1.684739589691162,2.6951247558593745
1766001812910209300,4.169209228515625,5.383907794952393,-0.1295700073242187,0.1654582023620605,2.7139060058593745
1766001812928990700,4.18799072265625,5.899107456207275,-0.4692153930664062,-0.8274462819099426,2.7326874999999995
1766001812947772200,4.206772216796875,6.730274200439453,-0.6691093444824219,-1.576998233795166,2.7514689941406245
1766001812966553600,4.2255537109375,7.924248218536377,-0.940953254699707,-1.9257845878601076,2.7702504882812495
1766001812985334800,4.244334716796875,7.40277099609375,-0.5154294967651367,-1.4561879634857178,2.7890314941406245
1766001813004116200,4.2631162109375,5.596338272094727,1.5370702743530271,-0.9771273732185364,2.8078129882812495
1766001813022897700,4.281897705078125,3.772116184234619,2.228557586669922,-0.5218912959098816,2.8265944824218745
1766001813051069700,4.310069580078125,0.5502533912658691,0.6324396133422852,-1.7061398029327393,2.8547663574218745
1766001813069851000,4.328850830078125,-2.793144464492798,-0.266702651977539,-0.3097206950187683,2.8735476074218753
1766001813088632300,4.34763232421875,-5.146955966949463,-3.489297866821289,0.7247116565704346,2.8923291015624994
1766001813107413800,4.366413818359375,-6.366825103759766,-10.669519424438477,2.485471248626709,2.9111105957031245
1766001813126195200,4.3851953125,-8.897529602050781,-15.939598083496094,1.5865252017974854,2.9298920898437495
1766001813144976400,4.403976318359375,-10.650421142578123,-8.69720458984375,0.8533634543418884,2.9486730957031253
1766001813163757800,4.4227578125,-13.281946182250977,2.381380081176758,1.3387072086334229,2.9674545898437503
1766001813182539300,4.441539306640625,-14.70604419708252,32.15257263183594,4.375668525695801,2.9862360839843745
1766001813201320400,4.460320556640625,-19.03569984436035,11.803101539611816,-2.415437936782837,3.0050173339843753
1766001813220102000,4.479101806640625,-19.599946975708008,1.2079095840454102,1.713750243186951,3.0237985839843753
1766001813238883300,4.49788330078125,-11.994619369506836,11.355216979980469,1.515516757965088,3.0425800781250003
1766001813257664500,4.51666455078125,-4.152199745178223,18.95835876464844,0.0389287173748016,3.0613613281250003
1766001813285836500,4.54483642578125,3.831320285797119,-5.844953536987305,2.3215436935424805,3.0895332031250002
1766001813304618000,4.563617919921875,12.921538352966309,-15.973388671875,0.1512970924377441,3.1083146972656253
1766001813332790000,4.5917900390625,11.210288047790527,-7.006370067596436,3.0079874992370605,3.1364868164062503
1766001813351571500,4.610571533203125,7.011022090911865,-12.24274730682373,1.0361987352371216,3.1552683105468753
1766001813370353000,4.629352783203125,2.028392791748047,-9.843884468078612,-1.9990830421447756,3.1740495605468753
1766001813389134300,4.64813427734375,-0.2476908266544342,-11.411162376403809,0.8254455327987671,3.1928310546875003
1766001813407915500,4.66691552734375,-0.3134990632534027,-9.563578605651855,2.6205220222473145,3.2116123046875003
1766001813426697000,4.685697021484375,0.7998163104057312,-9.814074516296388,1.1297670602798462,3.2303937988281253
1766001813445478400,4.704478515625,1.743964433670044,-9.92772102355957,0.2553524374961853,3.2491752929687503
1766001813464259800,4.723259765625,1.9842994213104248,-9.85033130645752,0.4787608087062835,3.2679565429687503
1766001813483041000,4.742041015625,2.0545966625213623,-9.8248291015625,0.3645090460777282,3.2867377929687502
1766001813501822500,4.760822509765625,2.804464340209961,-9.488577842712402,1.1847467422485352,3.3055192871093753
1766001813520604000,4.77960400390625,2.983581781387329,-9.62602710723877,0.8421696424484253,3.3243007812500003
1766001813539385300,4.79838525390625,3.2565314769744877,-9.78523063659668,0.2913635373115539,3.3430820312500003
1766001813558166500,4.81716650390625,2.340879440307617,-9.922961235046388,-0.0980041623115539,3.3618632812500002
1766001813576948000,4.835947998046875,-0.0791766643524169,-14.927896499633787,5.545130252838135,3.3806447753906252
1766001813595729400,4.8547294921875,-0.5057063102722168,15.58306121826172,-3.6737663745880127,3.3994262695312503
1766001813614510800,4.8735107421875,-9.368699073791504,24.342044830322266,-0.7946337461471558,3.4182075195312502
1766001813633292000,4.8922919921875,4.356265068054199,3.188282966613769,2.325608730316162,3.43698876953125
1766001813652073500,4.911073486328125,15.379518508911133,54.169410705566406,-5.47029447555542,3.4557702636718752
1766001813670855000,4.92985498046875,4.356265068054199,12.808399200439451,-6.110179901123047,3.4745517578125003
1766001813689636000,4.948635986328125,-4.441563129425049,-10.092822074890137,6.990787982940674,3.493332763671875
1766001813708417500,4.96741748046875,-13.302937507629396,-35.579437255859375,9.350366592407228,3.5121142578125
1766001813727199000,4.986198974609375,-4.441563129425049,-4.7348480224609375,-3.366305351257324,3.530895751953125
1766001813745980400,5.00498046875,-2.106736421585083,23.422203063964844,-3.0116872787475586,3.5496772460937502
1766001813764761600,5.02376171875,-2.1972815990448,9.107551574707031,6.931391716003418,3.56845849609375
1766001813783543000,5.04254296875,1.782861351966858,-7.368313789367676,5.406989097595215,3.58723974609375
1766001813802324500,5.061324462890625,4.211032390594482,-9.659729957580566,-1.683814287185669,3.606021240234375
1766001813821105700,5.080105712890625,5.359582901000977,-5.08056116104126,-4.031337738037109,3.624802490234375
1766001813839887000,5.09888720703125,6.798637866973877,-0.6428499221801758,-1.5678457021713257,3.643583984375
1766001813858668500,5.11766845703125,6.36447286605835,0.7648715972900391,-1.710972785949707,3.662365234375
1766001813877450000,5.136449951171875,4.631435871124268,-0.1773004531860351,-1.0509865283966064,3.681146728515625
1766001813896231200,5.155231201171875,3.143730640411377,-0.1116209030151367,0.7674721479415894,3.699927978515625
1766001813915012600,5.1740126953125,1.610429286956787,1.7679939270019531,-1.0828590393066406,3.71870947265625
1766001813933794000,5.1927939453125,1.6359436511993408,1.8448362350463867,-1.5795817375183103,3.73749072265625
1766001813952575500,5.211575439453125,1.9888631105422971,0.1468982696533203,-0.2355797886848449,3.756272216796875
1766001813971356700,5.230356689453125,2.2115797996521,-0.8738956451416016,1.0083526372909546,3.775053466796875
1766001813990138000,5.24913818359375,2.009528636932373,-1.0960474014282229,1.1857211589813232,3.7938349609375
1766001814008919600,5.26791943359375,1.7241532802581787,-0.7294855117797852,-0.2263005375862121,3.8126162109375
1766001814027700700,5.28670068359375,0.8639034032821655,-0.4062824249267578,-0.8293479084968567,3.8313974609375
1766001814046482200,5.305482177734375,0.6068053245544434,-0.5265512466430664,-0.4068045020103454,3.850178955078125
1766001814065263600,5.324263671875,1.323986291885376,-0.3280410766601562,0.6287805438041687,3.86896044921875
1766001814084045000,5.343045166015625,2.6189873218536377,0.0088863372802734,0.9633816480636596,3.887741943359375
1766001814102826200,5.361826171875,3.564197301864624,-0.4489145278930664,0.2486331164836883,3.90652294921875
1766001814121607700,5.380607666015625,4.329410076141357,0.3167877197265625,-0.4909064173698425,3.925304443359375
1766001814140389000,5.39938916015625,4.405498504638672,0.8979606628417969,-0.0312529206275939,3.9440859375
1766001814168561200,5.42756103515625,5.549233913421631,-0.5522003173828125,-0.7562274932861328,3.9722578125
1766001814187342600,5.446342529296875,4.925138473510742,0.1877784729003906,-0.8724497556686401,3.991039306640625
1766001814206123800,5.465123779296875,4.111006736755371,1.4003524780273438,-0.2491087317466735,4.009820556640625
1766001814224905200,5.4839052734375,2.3653273582458496,2.399062156677246,-0.0503425747156143,4.0286020507812506
