time,seconds_elapsed,z,y,x,t
1766001818375591700,9.634591796875,-0.2620609998703003,-0.8937715291976929,-1.331456184387207,8.122944580078125
1766001818394373000,9.653373046875,-0.0922405794262886,-0.0148898288607597,-1.1260528564453125,8.141725830078125
1766001818413154300,9.672154296875,-0.0215329825878143,0.3366628587245941,-0.9153045415878296,8.160507080078125
1766001818431935700,9.690935791015624,-0.0398589260876178,0.2836703360080719,-0.7053197622299194,8.179288574218749
1766001818450717200,9.70971728515625,0.0025961752980947,0.1811977624893188,-0.6155226230621338,8.198070068359375
1766001818469498600,9.72849853515625,0.0661261156201362,0.5044979453086853,-0.6989056468009949,8.216851318359375
1766001818488280000,9.747280029296874,0.2211330533027649,0.5979602336883545,-0.8126792311668396,8.235632812499999
1766001818507061500,9.7660615234375,0.1052214577794075,-0.2592357397079468,-1.044960618019104,8.254414306640625
1766001818525842700,9.7848427734375,-0.1189659163355827,-0.8632283210754395,-0.9359211921691896,8.273195556640625
1766001818544624000,9.8036240234375,0.0012217295588925,-1.1196388006210327,-0.3798815310001373,8.291976806640625
1766001818563405600,9.822405517578124,0.2425133138895034,-0.5248091816902161,0.0793360620737075,8.310758300781249
1766001818582187000,9.84118701171875,0.2466366589069366,0.4750237166881561,0.4476875364780426,8.329539794921875
1766001818600968400,9.859968505859374,-0.0236710105091333,0.6981421113014221,0.7082213759422302,8.348321289062499
1766001818619750000,9.87875,-0.0036651887930929,0.5261836647987366,0.9704350829124452,8.367102783203125
1766001818638531000,9.897531005859374,0.1434005051851272,0.2315941154956817,1.227914571762085,8.385883789062499
1766001818657312500,9.9163125,0.1861610412597656,0.4476875364780426,1.4204896688461304,8.404665283203125
1766001818676094000,9.935093994140624,0.1547015011310577,0.7665589451789856,1.6326124668121338,8.423446777343749
1766001818694875400,9.95387548828125,0.1409570425748825,0.7864120602607727,1.846720576286316,8.442228271484375
1766001818713656800,9.97265673828125,0.324063777923584,0.5429824590682983,1.939571976661682,8.461009521484375
1766001818732438300,9.991438232421874,0.4744892120361328,0.1419496983289718,2.1258857250213623,8.479791015624999
1766001818751219500,10.010219482421874,0.2536616027355194,-0.192651480436325,2.1045055389404297,8.498572265624999
1766001818770001000,10.0290009765625,0.0580321550369262,0.0645225942134857,1.9447643756866453,8.517353759765625
1766001818788782300,10.0477822265625,-0.0077885258942842,-0.1831830739974975,1.9016984701156616,8.536135009765625
1766001818816954400,10.075954345703124,-0.2272416949272155,-0.0651334598660469,1.2763255834579468,8.564307128906249
1766001818835735800,10.09473583984375,-0.0771216750144958,-0.058719377964735,1.3244311809539795,8.583088623046875
1766001818854517200,10.113517333984374,0.4613556265830993,0.2561814188957214,1.0577887296676636,8.601870117187499
1766001818873298700,10.132298583984374,0.6440041661262512,0.3050506114959717,0.7042507529258728,8.620651367187499
1766001818892080000,10.151080078125,0.5933024287223816,0.2622900605201721,0.2570977210998535,8.639432861328125
1766001818910861600,10.169861572265624,-0.0791069865226745,0.2343430072069168,-0.3795761168003082,8.658214355468749
1766001818929642800,10.188642822265624,-0.3034470677375793,-0.2346484363079071,-1.0956623554229736,8.676995605468749
1766001818948424200,10.207424072265624,-0.2513708472251892,-0.5402335524559021,-1.939266562461853,8.695776855468749
1766001818967205600,10.22620556640625,-0.4659371078014374,-0.5994874238967896,-2.800891399383545,8.714558349609375
1766001818985987000,10.244987060546874,-0.4995346665382385,-0.7502183318138123,-3.572108268737793,8.733339843749999
1766001819004768500,10.2637685546875,-0.6308705806732178,-1.1083377599716189,-4.521544933319092,8.752121337890625
1766001819023550000,10.282550048828124,-1.0821470022201538,-2.007378101348877,-5.433107852935791,8.770902832031249
1766001819051722000,10.310721923828124,-1.138957381248474,-2.745302677154541,-4.223289966583252,8.799074707031249
1766001819070503400,10.32950341796875,0.0971274971961975,-0.1274416595697403,-1.9792782068252563,8.817856201171875
1766001819089284900,10.348284912109374,0.0268780495971441,-0.6950877904891968,-0.7758746147155762,8.836637695312499
1766001819108066300,10.36706640625,0.2292270064353943,-2.4866013526916504,0.4566977918148041,8.855419189453125
1766001819126847700,10.38584765625,0.4152353405952453,-2.1235949993133545,0.9122501611709596,8.874200439453125
1766001819145629200,10.404629150390624,0.2625191509723663,-0.5060251355171204,0.7864120602607727,8.892981933593749
1766001819164410400,10.423410400390624,-0.0441349819302558,0.85834139585495,0.307494044303894,8.911763183593749
1766001819183191800,10.44219189453125,-0.106595903635025,1.3862812519073486,-0.0590248107910156,8.930544677734375
1766001819201973200,10.46097314453125,-0.0667369738221168,1.242422580718994,-0.1625663936138153,8.949325927734375
1766001819220754700,10.479754638671874,-0.1223256736993789,0.8980475664138794,-0.1118646115064621,8.968107421874999
1766001819239536000,10.4985361328125,-0.1266017258167266,0.649578332901001,-0.0251218136399984,8.986888916015625
1766001819258317600,10.517317626953124,-0.086284652352333,0.5132027864456177,0.1127809062600135,9.005670410156249
1766001819277099000,10.53609912109375,-0.1047633066773414,0.5690969228744507,0.3549887835979461,9.024451904296875
1766001819295880200,10.554880126953124,-0.1079703494906425,0.6847030520439148,0.5576431751251221,9.043232910156249
1766001819314661600,10.57366162109375,-0.15042544901371,0.9314924478530884,0.876056432723999,9.062014404296875
1766001819333443000,10.592443115234374,-0.4135554432868957,2.0195953845977783,4.569039344787598,9.080795898437499
1766001819352224500,10.611224609375,0.878728985786438,2.8887031078338623,4.388834476470947,9.099577392578125
1766001819371006000,10.630005859375,1.7408119440078735,3.485517978668213,1.6349031925201416,9.118358642578125
1766001819399178000,10.658177978515624,0.7189878225326538,-2.8332672119140625,2.417421102523804,9.146530761718749
1766001819417959400,10.67695947265625,-0.4897608458995819,-2.9004623889923096,1.4169771671295166,9.165312255859375
1766001819436740900,10.695740966796874,-0.12553271651268,1.7074434757232666,-0.0576503649353981,9.184093749999999
1766001819455522300,10.714522216796874,0.2784016132354736,0.0129045182839035,-1.172020435333252,9.202874999999999
1766001819474303700,10.7333037109375,-0.3845393657684326,-1.7463860511779783,-1.5817580223083496,9.221656494140625
1766001819493085000,10.7520849609375,0.3417788445949554,-0.6990583539009094,-1.99225914478302,9.240437744140625
1766001819511866400,10.770866455078124,1.1018472909927368,-1.266093611717224,-2.3051745891571045,9.259219238281249
1766001819530647800,10.789647705078124,-0.8104648590087891,-0.256792277097702,-2.3894739151000977,9.278000488281249
1766001819549429200,10.80842919921875,-0.883768618106842,-0.0054214247502386,-1.9213987588882449,9.296781982421875
1766001819568210700,10.827210693359374,0.1559232324361801,0.0403934344649314,-1.5585451126098633,9.315563476562499
1766001819586992000,10.8459921875,0.3103193044662475,-0.3549887835979461,-1.185917615890503,9.334344970703125
1766001819605773600,10.864773681640624,0.3704894781112671,0.2103665620088577,-0.8598685264587402,9.353126464843749
1766001819633945600,10.892945556640624,0.1237001195549964,1.5622103214263916,-0.6388881802558899,9.381298339843749
1766001819652727000,10.91172705078125,-0.2264781147241592,0.5241983532905579,-0.289626270532608,9.400079833984375
1766001819671508500,10.930508544921874,0.0922405794262886,-0.4324159026145935,0.1031597927212715,9.418861328124999
1766001819690290000,10.9492900390625,0.2974911332130432,-0.4524217247962951,0.422947496175766,9.437642822265625
1766001819709071400,10.9680712890625,0.0763580948114395,0.0891098976135253,0.6237692832946777,9.456424072265625
1766001819727852500,10.9868525390625,-0.0749836489558219,0.6376664638519287,0.7512873411178589,9.475205322265625
1766001819746634000,11.005634033203124,-0.0560468435287475,0.4475347995758056,0.8439860343933105,9.493986816406249
1766001819774806000,11.033805908203124,0.1203403621912002,0.3329976499080658,0.8978948593139648,9.522158691406249
1766001819793587500,11.05258740234375,0.0713184624910354,0.5851321220397949,0.9898300170898438,9.540940185546875
1766001819812369000,11.071368896484374,0.0114537142217159,0.7712931632995605,1.0770310163497925,9.559721679687499
1766001819831150300,11.090150390625,0.0305432397872209,0.7412080764770508,1.138575553894043,9.578503173828125
1766001819849931800,11.108931884765624,0.0456621423363685,0.5300015807151794,1.251585602760315,9.597284667968749
1766001819868713200,11.127713134765624,0.077732540667057,0.3534616231918335,1.325500249862671,9.616065917968749
1766001819887494700,11.14649462890625,0.1227838173508644,0.125303640961647,1.4075088500976562,9.634847412109375
1766001819906276000,11.165276123046874,0.0335975624620914,-0.0410043001174926,1.4774528741836548,9.653628906249999
1766001819925057500,11.1840576171875,-0.0053450670093297,0.0895680487155914,1.5356377363204956,9.672410400390625
1766001819943839000,11.2028388671875,0.0455094277858734,0.2354120165109634,1.5345686674118042,9.691191650390625
1766001819962620200,11.2216201171875,0.1015562713146209,0.2893208265304565,1.5678608417510986,9.709972900390625
1766001819981401600,11.240401611328124,0.2292270064353943,0.2445749789476394,1.443244457244873,9.728754394531249
1766001820000183000,11.25918310546875,0.3329212963581085,0.0090866135433316,1.4766892194747925,9.747535888671875
1766001820018964500,11.277964599609374,0.41218101978302,-0.0871245861053466,1.4006365537643433,9.766317382812499
1766001820037746000,11.296745849609374,0.3856084048748016,-0.1637881249189376,1.2697588205337524,9.785098632812499
1766001820056527400,11.31552734375,0.2577849328517914,-0.1952476501464843,0.7439569234848022,9.803880126953125
1766001820075308800,11.334308837890624,0.0056504993699491,-0.1527925580739975,0.3216966688632965,9.822661621093749
1766001820094090000,11.353090087890624,0.0010690133785828,0.0513890013098716,-0.3937787115573883,9.841442871093749
1766001820112871400,11.371871337890624,0.3174969553947449,-0.1092684343457222,-1.1158208847045898,9.860224121093749
1766001820131652900,11.39065283203125,-0.040469791740179,-0.5037343502044678,-1.9795836210250852,9.879005615234375
1766001820150434300,11.409434326171874,-0.5164861679077148,-0.812526524066925,-2.948873281478882,9.897787109374999
1766001820169215700,11.4282158203125,-0.2415970265865326,-1.22944176197052,-3.596390008926392,9.916568603515625
1766001820187997200,11.4469970703125,-0.6359102129936218,-1.3963605165481567,-4.555447578430176,9.935349853515625
1766001820216169200,11.475169189453124,-1.4309507608413696,-2.4891977310180664,-5.147528648376465,9.963521972656249
1766001820234950700,11.49395068359375,-0.670576810836792,-1.5333470106124878,-3.348531723022461,9.982303466796875
1766001820253732000,11.512732177734376,0.5769617557525635,0.3189477622509002,-1.2505165338516235,10.0010849609375
1766001820272513500,11.531513427734374,0.210901066660881,0.5970439910888672,-0.3070359230041504,10.019866210937499
1766001820291295000,11.550294921875,0.2518289983272552,0.0324521921575069,0.2590830326080322,10.038647705078125
1766001820310076400,11.569076416015625,0.306043267250061,-0.0929278060793876,0.2709949016571045,10.057429199218749
1766001820328857900,11.58785791015625,0.1566868126392364,-0.0764344558119773,0.0110719241201877,10.076210693359375
1766001820347639000,11.60663916015625,0.0430659651756286,0.164551705121994,-0.3184896111488342,10.094991943359375
1766001820366420700,11.625420654296876,0.0122172953560948,0.3812559843063354,-0.5011382102966309,10.1137734375
1766001820385202000,11.644201904296876,-0.0201585385948419,0.3281107544898987,-0.4586831033229828,10.1325546875
1766001820413374200,11.672374267578125,-0.0332921296358108,-0.0790306329727172,-0.1390480995178222,10.160727050781249
