time,seconds_elapsed,z,y,x,t
1766001817276880000,8.5358798828125,5.947980880737305,-7.767499446868896,-0.4050807356834411,7.08057666015625
1766001817295661300,8.554661376953124,6.140031337738037,-5.310993671417236,-1.530730128288269,7.0993581542968744
1766001817314442800,8.57344287109375,3.90867280960083,-1.3196802139282229,-0.9401277899742126,7.1181396484375
1766001817333224200,8.59222412109375,0.7805094718933105,7.536999702453613,-2.73547625541687,7.1369208984375
1766001817352005600,8.611005615234374,0.7469285130500793,13.78630256652832,-3.769360065460205,7.1557023925781245
1766001817370786800,8.629786865234376,8.139984130859375,-1.8575124740600584,-3.40042781829834,7.174483642578126
1766001817389568300,8.648568359375,11.577420234680176,-7.08812427520752,-1.5216566324234009,7.19326513671875
1766001817408349700,8.667349609375,9.102456092834473,-0.5279378890991211,2.901134490966797,7.21204638671875
1766001817427131100,8.686131103515624,5.376801013946533,1.7144250869750977,5.016870021820068,7.2308278808593744
1766001817445912600,8.70491259765625,3.1915812492370605,0.1034927368164062,0.9431118965148926,7.249609375
1766001817464693800,8.72369384765625,2.707114219665528,-0.4539403915405273,-2.980428695678711,7.268390625
1766001817483475200,8.74247509765625,2.461997032165528,-0.3788585662841797,-3.565917015075684,7.287171875
1766001817502256600,8.761256591796876,2.0642709732055664,-0.3750782012939453,-0.7989838123321533,7.305953369140626
1766001817521038000,8.7800380859375,1.7407989501953125,-0.3057527542114258,0.8567847013473511,7.32473486328125
1766001817539819500,8.798819580078124,1.7141451835632324,-0.2375860214233398,0.7985318899154663,7.3435163574218745
1766001817558600700,8.8176005859375,2.775965929031372,0.6288232803344727,0.4161193370819092,7.36229736328125
1766001817577382100,8.836382080078126,1.9869625568389893,1.480304718017578,0.3539543747901916,7.381078857421876
1766001817596163600,8.85516357421875,0.9215426445007324,1.201176643371582,0.8361060619354248,7.3998603515625
1766001817614945000,8.873945068359374,-0.5232806205749512,0.3408870697021484,0.9979388117790222,7.4186418457031245
1766001817633726500,8.8927265625,-2.611988067626953,-0.9346585273742676,0.2014135420322418,7.43742333984375
1766001817652508000,8.9115078125,-3.4984426498413086,-4.224715709686279,1.161669135093689,7.45620458984375
1766001817671289000,8.9302890625,-4.814847946166992,-7.256846904754639,0.5197728276252747,7.47498583984375
1766001817690070500,8.949070556640624,-5.626023769378662,-8.50192642211914,-0.8302011489868164,7.4937673339843744
1766001817708852000,8.96785205078125,-9.012224197387695,-6.971301078796387,-1.729682445526123,7.512548828125
1766001817727633400,8.98663330078125,-12.750595092773438,-5.962619781494141,-0.9864674806594848,7.531330078125
1766001817746414800,9.005414794921874,-16.819032669067383,0.5213584899902344,-0.532961368560791,7.5501115722656245
1766001817765196000,9.024196044921876,-15.554412841796877,12.221240043640137,2.079689741134644,7.568892822265626
1766001817783977500,9.0429775390625,-17.046567916870117,27.133079528808597,2.2177212238311768,7.58767431640625
1766001817802759000,9.061759033203124,-12.161930084228516,10.747602462768556,1.3615617752075195,7.6064558105468745
1766001817821540400,9.080540283203124,-6.156299591064453,13.377427101135254,0.5375070571899414,7.6252370605468744
1766001817840321800,9.09932177734375,-0.2275335788726806,9.95461654663086,0.1621221601963043,7.6440185546875
1766001817859103200,9.118103271484374,4.321858406066895,-3.5348663330078125,3.402529239654541,7.6628000488281245
1766001817877884400,9.136884521484374,11.817036628723145,-13.845378875732422,2.718327045440674,7.6815812988281245
1766001817896665900,9.155665771484376,13.697439193725586,-14.037477493286133,1.1933674812316897,7.700362548828126
1766001817915447300,9.174447265625,7.774118423461914,-5.803128242492676,2.6635046005249023,7.71914404296875
1766001817934228700,9.193228759765624,3.4230337142944336,-10.259355545043944,-0.6458778381347656,7.7379255371093745
1766001817953010200,9.21201025390625,1.3597984313964844,-9.233924865722656,0.282328724861145,7.75670703125
1766001817971791600,9.23079150390625,0.3952445983886719,-10.08731746673584,3.034959316253662,7.77548828125
1766001817990573000,9.249572998046874,1.268305420875549,-9.987231254577637,3.135727882385254,7.7942697753906245
1766001818009354500,9.2683544921875,1.871785879135132,-10.265247344970703,0.8866233825683594,7.81305126953125
1766001818028135700,9.2871357421875,1.619260549545288,-9.958937644958496,-0.4358630776405334,7.83183251953125
1766001818046917000,9.305917236328124,1.0258103609085083,-10.022025108337402,-0.3351529240608215,7.8506140136718745
1766001818065698600,9.324698486328124,1.151474952697754,-10.242523193359377,0.4728921353816986,7.8693952636718745
1766001818084480000,9.34347998046875,1.4254238605499268,-10.123897552490234,0.6085761785507202,7.8881767578125
1766001818103261400,9.362261474609374,1.6457126140594482,-10.25932502746582,0.1666948795318603,7.9069582519531245
1766001818122043000,9.38104296875,1.5956014394760132,-10.138115882873535,0.1738887429237365,7.92573974609375
1766001818140824300,9.39982421875,2.781771421432495,-10.732430458068848,1.256923794746399,7.94452099609375
1766001818159605500,9.41860546875,-13.993228912353516,-8.699214935302734,5.831357002258301,7.96330224609375
1766001818178387000,9.437386962890624,8.496914863586426,25.80270195007324,-1.946163773536682,7.9820837402343745
1766001818197168400,9.45616845703125,-6.327325820922852,27.84899139404297,-3.9190480709075928,8.000865234375
1766001818215949800,9.47494970703125,-5.808189868927002,1.1537141799926758,-5.176101207733154,8.019646484375
1766001818234731300,9.493731201171874,-6.7557902336120605,15.861464500427246,3.617984294891357,8.038427978515625
1766001818253512700,9.5125126953125,-19.765602111816406,22.814245223999023,1.242903470993042,8.05720947265625
1766001818272294000,9.5312939453125,-16.23516082763672,-0.9638662338256836,-1.626307725906372,8.07599072265625
1766001818291075300,9.550075439453124,-12.048315048217772,-7.072839260101318,-2.256157636642456,8.094772216796875
1766001818309856800,9.568856689453124,-5.691612720489502,-5.38912296295166,-1.932648539543152,8.113553466796875
1766001818328638200,9.58763818359375,-1.313586711883545,-0.888697624206543,0.6436208486557007,8.1323349609375
1766001818347419600,9.606419677734374,0.5885255336761475,-1.0302038192749023,3.9474172592163086,8.151116455078125
1766001818366200800,9.625200927734374,1.7640738487243652,-3.874393939971924,4.6415629386901855,8.169897705078125
1766001818384982300,9.643982177734374,2.5863139629364014,-5.841072082519531,2.7223503589630127,8.188678955078124
1766001818403763700,9.662763671875,3.2961316108703613,-5.879349708557129,0.9987149238586426,8.20746044921875
1766001818422545200,9.681545166015624,3.507075786590576,-4.166592597961426,-0.3513962924480438,8.226241943359375
1766001818441326600,9.70032666015625,2.168769121170044,-2.876260280609131,-1.4050713777542114,8.2450234375
1766001818460108000,9.71910791015625,-0.703606367111206,-0.5463161468505859,-0.5298565626144409,8.2638046875
1766001818478889200,9.73788916015625,-2.140659809112549,4.036905288696289,-0.5408221483230591,8.2825859375
1766001818497670700,9.756670654296874,-1.6827762126922607,8.932028770446777,-1.4687788486480713,8.301367431640625
1766001818516452000,9.7754521484375,1.2003512382507324,6.188446044921875,-2.870206117630005,8.32014892578125
1766001818535233500,9.794233642578124,8.417420387268066,-3.3851394653320312,-2.792717933654785,8.338930419921875
1766001818554015000,9.813014892578124,11.16501522064209,-4.878617286682129,0.3535716831684112,8.357711669921875
1766001818572796400,9.83179638671875,8.350814819335938,0.1838998794555664,2.9857776165008545,8.3764931640625
1766001818591577600,9.85057763671875,5.0042877197265625,1.2076759338378906,3.156665802001953,8.3952744140625
1766001818610359000,9.869359130859374,4.109264850616455,-0.5860233306884766,-0.971876621246338,8.414055908203125
1766001818629140500,9.888140380859374,4.756851673126221,-1.3559284210205078,-2.825582981109619,8.432837158203125
1766001818647922000,9.906921875,4.689179420471191,-0.3856544494628906,-1.5291590690612793,8.45161865234375
1766001818666703400,9.925703369140624,4.097221851348877,0.3344202041625976,0.284466028213501,8.470400146484375
1766001818685484800,9.94448486328125,4.104360103607178,0.4551038742065429,0.4637757539749145,8.489181640625
1766001818704266000,9.963265869140624,3.0233371257781982,1.2083559036254885,-1.4060839414596558,8.507962646484375
1766001818723047400,9.98204736328125,3.569632768630981,2.107388496398926,-2.4469401836395264,8.526744140625
1766001818741828900,10.000828857421874,3.9659135341644287,1.4815397262573242,0.2314418703317642,8.545525634765625
1766001818760610300,10.0196103515625,-2.1441187858581543,1.5846290588378906,0.9556378126144408,8.56430712890625
1766001818779391700,10.038391845703124,-4.111170291900635,-0.8963780403137207,1.344886302947998,8.583088623046875
1766001818807563800,10.066563720703124,-4.005820274353027,-7.41339111328125,1.8778809309005735,8.611260498046875
1766001818826345200,10.08534521484375,-4.602965354919434,-12.196138381958008,4.578739643096924,8.6300419921875
1766001818845126700,10.104126708984374,-3.992320060729981,-9.018181800842283,1.284239649772644,8.648823486328125
1766001818863907800,10.122907958984374,-3.653796195983887,-1.7881169319152832,1.1462466716766355,8.667604736328125
1766001818882689300,10.141689208984374,-8.546463012695312,5.36859655380249,-1.7298414707183838,8.686385986328125
1766001818901470700,10.160470703125,-13.118200302124023,5.200027942657471,-0.908109188079834,8.70516748046875
1766001818920252200,10.179252197265624,-15.556514739990234,2.498533248901367,-0.0805421769618988,8.723948974609375
1766001818939033600,10.19803369140625,-17.107467651367188,8.78445053100586,-0.3380501270294189,8.74273046875
1766001818957815000,10.21681494140625,-18.155445098876957,14.149624824523926,1.4142327308654783,8.76151171875
1766001818976596500,10.235596435546874,-15.193351745605469,10.25518035888672,0.5846793055534363,8.780293212890625
1766001818995377700,10.254377685546874,-8.750555038452148,11.623955726623535,-0.7207737565040588,8.799074462890625
1766001819014159000,10.2731591796875,-3.652918815612793,9.961614608764648,-1.0161476135253906,8.81785595703125
1766001819042331100,10.3013310546875,4.907216548919678,-9.851887702941896,4.884442329406738,8.84602783203125
1766001819061112800,10.32011279296875,13.33876132965088,-13.453228950500488,2.9457316398620605,8.8648095703125
1766001819079894000,10.33889404296875,12.925951957702637,-9.530312538146973,0.9333632588386536,8.8835908203125
1766001819098675500,10.357675537109374,15.410202026367188,-14.448549270629885,-2.40195369720459,8.902372314453125
1766001819126847700,10.38584765625,3.883129119873047,-10.437926292419434,1.6584113836288452,8.93054443359375
1766001819145629200,10.404629150390624,-0.6128182411193848,-9.235275268554688,4.00573205947876,8.949325927734375
1766001819164410400,10.423410400390624,-2.0914268493652344,-7.914034366607666,2.8466739654541016,8.968107177734375
1766001819183191800,10.44219189453125,-0.5030556321144104,-8.854097366333008,0.4734144806861877,8.986888671875
1766001819201973200,10.46097314453125,1.2179347276687622,-9.885967254638672,0.1894928216934204,9.005669921875
1766001819220754700,10.479754638671874,2.074726104736328,-10.121111869812012,0.3320280909538269,9.024451416015625
1766001819239536000,10.4985361328125,2.553163528442383,-9.99117946624756,0.1091389656066894,9.04323291015625
1766001819258317600,10.517317626953124,2.8296375274658203,-9.892864227294922,0.4069966673851013,9.062014404296875
1766001819277099000,10.53609912109375,3.0267539024353027,-10.02467155456543,0.7648988366127014,9.0807958984375
