time,seconds_elapsed,z,y,x,t
1765999993260919600,17.83291943359375,-0.2115882933139801,0.1050687432289123,0.3057378232479095,16.441573730468754
1765999993279699200,17.85169921875,-0.2289979308843612,0.2755000293254852,0.2608392536640167,16.460353515625002
1765999993298479000,17.87047900390625,-0.2181550860404968,0.4083631038665771,0.2519817352294922,16.479133300781253
1765999993317258800,17.8892587890625,-0.1575267612934112,0.3671297430992126,0.2249509543180465,16.4979130859375
1765999993336038400,17.908038330078124,-0.0347429327666759,0.1818849891424179,0.1495091617107391,16.516692626953127
1765999993354818000,17.926818115234376,0.106366828083992,0.1408043354749679,0.0439822636544704,16.535472412109378
1765999993373597700,17.94559765625,0.1811977624893188,0.2296851575374603,-0.0455094277858734,16.554251953125004
1765999993392377600,17.964377685546875,0.2155589163303375,0.2768744528293609,-0.0875063762068748,16.573031982421877
1765999993411157200,17.9831572265625,0.3242928385734558,0.1566868126392364,-0.171653002500534,16.591811523437503
1765999993429937000,18.00193701171875,0.4748710095882416,0.0290160775184631,-0.1754709035158157,16.61059130859375
1765999993448716500,18.02071655273437,0.3704131245613098,-0.3355174660682678,0.0926987305283546,16.629370849609373
1765999993467496200,18.03949609375,0.117209680378437,-0.6272054314613342,0.096669353544712,16.648150390625002
1765999993486276000,18.058276123046877,0.1202640011906623,-0.8663589954376221,-0.0113009987398982,16.66693041992188
1765999993505055700,18.0770556640625,0.3395644724369049,-1.1267400979995728,-0.2432768940925598,16.6857099609375
1765999993523835400,18.09583544921875,0.6185769438743591,-1.446985960006714,-0.5261073112487793,16.704489746093753
1765999993542615000,18.114614990234376,0.8224530816078186,-1.9042181968688965,-0.8691078424453735,16.723269287109378
1765999993561394700,18.133394775390624,1.0649664402008057,-2.1313071250915527,-1.3492475748062134,16.742049072265626
1765999993580174600,18.152174560546875,1.452865481376648,-1.9414809942245483,-1.9303326606750488,16.760828857421878
1765999993598954200,18.170954345703127,1.970115303993225,-1.6065744161605835,-2.523176908493042,16.77960864257813
1765999993617734000,18.18973388671875,2.0846524238586426,-2.2655446529388428,-1.7044655084609983,16.79838818359375
1765999993636513500,18.20851342773437,1.4997494220733645,-0.5346593856811523,-2.4207043647766118,16.817167724609373
1765999993655293400,18.22729345703125,1.701640248298645,-1.0491602420806885,-2.848920583724976,16.835947753906254
1765999993674073000,18.246072998046877,2.4698026180267334,-1.1757619380950928,-2.903134822845459,16.85472729492188
1765999993692852700,18.264852783203125,2.007683515548706,-1.4967714548110962,-2.981172800064087,16.873507080078127
1765999993711632400,18.28363232421875,1.806556224822998,-2.0276129245758057,-2.955363750457764,16.892286621093753
1765999993730412000,18.302412109375,1.7399719953536987,-1.957058072090149,-2.7455317974090576,16.91106640625
1765999993749192000,18.32119189453125,1.4692060947418213,-0.9587522745132446,-2.486983299255371,16.929846191406252
1765999993767971600,18.3399716796875,1.1263582706451416,0.013133592903614,-2.195906162261963,16.948625976562504
1765999993786751200,18.358751220703127,0.8510109782218933,0.5871937870979309,-1.790597438812256,16.96740551757813
1765999993805531000,18.37753076171875,0.4976257085800171,1.0262528657913208,-1.3478730916976929,16.98618505859375
1765999993824310500,18.396310546875,0.1770744323730468,1.446985960006714,-0.9094249606132508,17.004964843750003
1765999993843090400,18.41509033203125,-0.0063377222977578,1.850003957748413,-0.4718930423259735,17.023744628906254
1765999993861870000,18.4338701171875,-0.1245400533080101,2.189339399337769,-0.0728456228971481,17.042524414062502
1765999993880649700,18.452649658203125,-0.1961639523506164,2.3651156425476074,0.2654207348823547,17.061303955078127
1765999993899429400,18.471429443359376,-0.2021198868751526,2.3599233627319336,0.549930989742279,17.08008374023438
1765999993918209000,18.490208984375,-0.1781434416770935,2.1774275302886963,0.7796161770820618,17.09886328125
1765999993936989000,18.50898901367188,-0.164551705121994,1.8915427923202517,0.9717331528663636,17.11764331054688
1765999993955768600,18.5277685546875,-0.1889862865209579,1.598022222518921,1.1438442468643188,17.136422851562504
1765999993974548200,18.54654833984375,-0.2464075833559036,1.3802490234375,1.3078614473342896,17.15520263671875
1765999993993327900,18.56532788085937,-0.3244455456733703,1.2993093729019165,1.468366265296936,17.173982177734374
1765999994012107800,18.584107666015623,-0.3965275883674621,1.335503101348877,1.6239839792251587,17.192761962890625
1765999994030887400,18.602887451171878,-0.4589885175228119,1.4587451219558716,1.7624976634979248,17.21154174804688
1765999994049667000,18.6216669921875,-0.5009855031967163,1.534186840057373,1.87459135055542,17.230321289062502
1765999994068446700,18.64044677734375,-0.5040398240089417,1.4763075113296509,1.9523237943649288,17.249101074218753
1765999994087226400,18.659226318359377,-0.4733438491821289,1.3066397905349731,2.001345634460449,17.26788061523438
1765999994106006300,18.67800634765625,-0.4432587623596191,1.0488548278808594,2.0303618907928467,17.286660644531253
1765999994124786000,18.69678588867188,-0.4357756674289703,0.767551600933075,2.035706758499145,17.305440185546882
1765999994143565600,18.715565673828124,-0.4568504989147186,0.5841394662857056,2.011425018310547,17.324219970703126
1765999994162345200,18.73434521484375,-0.4617374241352081,0.4966330528259277,1.9834779500961304,17.34299951171875
1765999994190515000,18.762514892578125,-0.4082867503166199,0.3648389875888824,1.9136866331100464,17.371169189453127
1765999994209294600,18.781294677734376,-0.3786598145961761,0.2280052751302719,1.83366334438324,17.38994897460938
1765999994228074200,18.80007421875,-0.3815613985061645,0.0415388047695159,1.7229441404342651,17.408728515625004
1765999994246854000,18.81885400390625,-0.3963748812675476,-0.1853974610567093,1.5932880640029907,17.427508300781252
1765999994265633500,18.837633544921875,-0.4209621846675873,-0.3779725730419159,1.4479022026062012,17.446287841796877
1765999994284413400,18.856413330078126,-0.4052324295043945,-0.4891499578952789,1.305112600326538,17.46506762695313
1765999994303193000,18.87519311523437,-0.3464366793632507,-0.5963567495346069,1.1559088230133057,17.483847412109373
1765999994321972700,18.89397265625,-0.2928332984447479,-0.759304940700531,1.012966513633728,17.502626953125002
1765999994340752400,18.91275244140625,-0.2815323173999786,-0.9217949509620668,0.8688024282455444,17.521406738281254
1765999994359532000,18.931531982421877,-0.2416733801364898,-1.0122029781341553,0.7389936447143555,17.54018627929688
1765999994378312000,18.95031201171875,-0.1599702090024948,-1.0378592014312744,0.6579013466835022,17.558966308593753
1765999994397091600,18.969091552734376,-0.0771980360150337,-1.0519092082977295,0.5674933791160583,17.57774584960938
1765999994415871200,18.987871337890624,0.0026725335046648,-1.0877974033355713,0.4680751264095306,17.596525634765626
1765999994434651000,19.00665087890625,0.0616209842264652,-1.152549147605896,0.3455967605113983,17.615305175781252
1765999994453430800,19.0254306640625,0.0825431048870086,-1.2331832647323608,0.1661552190780639,17.634084960937503
1765999994472210400,19.04421044921875,0.0348956510424613,-1.238681077957153,-0.0514653585851192,17.65286474609375
1765999994500380000,19.0723798828125,-0.0773507505655288,-0.9269872903823853,-0.3225366175174713,17.6810341796875
1765999994519159800,19.091159912109376,-0.1611919403076172,-0.1411097645759582,-0.9579886794090272,17.699814208984378
1765999994537939500,19.109939453125,-0.1657734364271164,0.2217439115047454,-1.1452187299728394,17.718593750000004
1765999994556719000,19.128718994140623,-0.0564286336302757,0.4889972507953644,-0.9763146042823792,17.737373291015626
1765999994575498800,19.147498779296875,0.2132681608200073,0.4558578431606293,-0.8924734592437744,17.756153076171877
1765999994594278400,19.1662783203125,0.1941786408424377,-0.0383317656815052,-0.7141009569168091,17.774932617187503
1765999994613058300,19.18505834960937,-0.0394771359860897,-0.4645626544952392,-0.4372264742851257,17.793712646484373
1765999994631838000,19.203837890625,-0.1358410567045211,-0.3727802336215973,-0.176234483718872,17.812492187500002
1765999994650617600,19.22261767578125,-0.09414953738451,-0.0488691814243793,0.0277943480759859,17.831271972656253
1765999994669397200,19.24139721679688,0.0271071251481771,0.1690568327903747,0.1224783882498741,17.850051513671882
1765999994688177200,19.26017724609375,0.0742964297533035,0.1000291109085083,0.1892153620719909,17.868831542968753
1765999994706956800,19.278956787109376,0.0981201529502868,-0.0565049909055233,0.2738201320171356,17.88761108398438
1765999994725736400,19.297736328125,0.1361464858055114,-0.0268780495971441,0.3637699782848358,17.906390625000004
1765999994744516000,19.31651611328125,0.1596647799015045,0.0768162459135055,0.4318813979625702,17.92517041015625
1765999994763296000,19.3352958984375,0.1802814751863479,0.2147189676761627,0.499381959438324,17.943950195312503
1765999994782075600,19.35407568359375,0.2612210512161255,0.1974620372056961,0.5355756878852844,17.96272998046875
1765999994800855300,19.37285522460937,0.3797288239002228,0.0322231166064739,0.5148062705993652,17.981509521484373
1765999994819635000,19.391635009765626,0.5044979453086853,-0.2753472924232483,0.4237874448299408,18.000289306640628
1765999994838414800,19.410414794921877,0.5831468105316162,-0.5670352578163147,0.2622137069702148,18.01906909179688
1765999994857194500,19.429194580078125,0.5868119597434998,-0.6843212842941284,0.0198531057685613,18.037848876953127
1765999994875974100,19.44797412109375,0.5504655241966248,-0.5381718873977661,-0.3179551064968109,18.056628417968753
1765999994894753800,19.46675390625,0.5397753715515137,-0.3451386094093323,-0.6869174242019653,18.075408203125
1765999994913533400,19.485533447265624,0.5849793553352356,-0.1443168073892593,-1.0386228561401367,18.094187744140626
1765999994932313300,19.504313232421875,0.6026944518089294,-0.0403170771896839,-1.3946043252944946,18.112967529296878
1765999994951093000,19.523093017578127,0.5883391499519348,-0.0978910773992538,-1.766468167304993,18.13174731445313
1765999994969872600,19.54187255859375,0.5452731847763062,-0.2820668220520019,-2.1554362773895264,18.15052685546875
1765999994988652300,19.56065234375,0.5382482409477234,-0.551152765750885,-2.5271475315093994,18.169306640625003
1765999995007432200,19.57943212890625,0.625907301902771,-0.8266527652740479,-2.88862681388855,18.188086425781254
1765999995026211800,19.5982119140625,0.7625883221626282,-1.2322670221328735,-3.1538949012756348,18.206866210937502
1765999995044991500,19.616991455078125,0.898200273513794,-1.6898046731948853,-3.283703565597534,18.225645751953127
1765999995063771100,19.635771240234376,1.045266032218933,-1.9923354387283323,-3.089754104614258,18.24442553710938
1765999995082551000,19.654551025390624,0.8830813765525818,-3.023475170135498,-1.8730641603469849,18.263205322265627
1765999995101330700,19.67333056640625,0.7137191295623779,-1.2993093729019165,-2.003942012786865,18.281984863281252
1765999995120110300,19.6921103515625,0.941113531589508,-0.5343539714813232,-1.886197686195373,18.300764648437504
1765999995138890000,19.710889892578123,0.8413898944854736,0.9833396077156068,-1.5364776849746704,18.319544189453126
1765999995167059700,19.739059814453125,0.1879172772169113,3.118617296218872,-1.238833785057068,18.347714111328127
1765999995185839400,19.75783935546875,-0.0371863916516304,2.863581418991089,-0.9856303334236144,18.366493652343753
1765999995204619000,19.776618896484376,-0.0897207632660865,1.8617631196975708,-0.782365083694458,18.385273193359378
1765999995223398700,19.795398681640624,-0.0232892204076051,0.9954041838645936,-0.5806269645690918,18.404052978515626
1765999995242178600,19.814178466796875,0.090637058019638,0.6108647584915161,-0.3411679863929748,18.422832763671877
1765999995260958200,19.832958251953126,0.1263726502656936,0.8254310488700867,-0.0992655232548713,18.44161254882813
