time,seconds_elapsed,z,y,x,t
1765999994265633500,18.837633544921875,-0.4209621846675873,-0.3779725730419159,1.4479022026062012,17.446287841796877
1765999994284413400,18.856413330078126,-0.4052324295043945,-0.4891499578952789,1.305112600326538,17.46506762695313
1765999994303193000,18.87519311523437,-0.3464366793632507,-0.5963567495346069,1.1559088230133057,17.483847412109373
1765999994321972700,18.89397265625,-0.2928332984447479,-0.759304940700531,1.012966513633728,17.502626953125002
1765999994340752400,18.91275244140625,-0.2815323173999786,-0.9217949509620668,0.8688024282455444,17.521406738281254
1765999994359532000,18.931531982421877,-0.2416733801364898,-1.0122029781341553,0.7389936447143555,17.54018627929688
1765999994378312000,18.95031201171875,-0.1599702090024948,-1.0378592014312744,0.6579013466835022,17.558966308593753
1765999994397091600,18.969091552734376,-0.0771980360150337,-1.0519092082977295,0.5674933791160583,17.57774584960938
1765999994415871200,18.987871337890624,0.0026725335046648,-1.0877974033355713,0.4680751264095306,17.596525634765626
1765999994434651000,19.00665087890625,0.0616209842264652,-1.152549147605896,0.3455967605113983,17.615305175781252
1765999994453430800,19.0254306640625,0.0825431048870086,-1.2331832647323608,0.1661552190780639,17.634084960937503
1765999994472210400,19.04421044921875,0.0348956510424613,-1.238681077957153,-0.0514653585851192,17.65286474609375
1765999994500380000,19.0723798828125,-0.0773507505655288,-0.9269872903823853,-0.3225366175174713,17.6810341796875
1765999994519159800,19.091159912109376,-0.1611919403076172,-0.1411097645759582,-0.9579886794090272,17.699814208984378
1765999994537939500,19.109939453125,-0.1657734364271164,0.2217439115047454,-1.1452187299728394,17.718593750000004
1765999994556719000,19.128718994140623,-0.0564286336302757,0.4889972507953644,-0.9763146042823792,17.737373291015626
1765999994575498800,19.147498779296875,0.2132681608200073,0.4558578431606293,-0.8924734592437744,17.756153076171877
1765999994594278400,19.1662783203125,0.1941786408424377,-0.0383317656815052,-0.7141009569168091,17.774932617187503
1765999994613058300,19.18505834960937,-0.0394771359860897,-0.4645626544952392,-0.4372264742851257,17.793712646484373
1765999994631838000,19.203837890625,-0.1358410567045211,-0.3727802336215973,-0.176234483718872,17.812492187500002
1765999994650617600,19.22261767578125,-0.09414953738451,-0.0488691814243793,0.0277943480759859,17.831271972656253
1765999994669397200,19.24139721679688,0.0271071251481771,0.1690568327903747,0.1224783882498741,17.850051513671882
1765999994688177200,19.26017724609375,0.0742964297533035,0.1000291109085083,0.1892153620719909,17.868831542968753
1765999994706956800,19.278956787109376,0.0981201529502868,-0.0565049909055233,0.2738201320171356,17.88761108398438
1765999994725736400,19.297736328125,0.1361464858055114,-0.0268780495971441,0.3637699782848358,17.906390625000004
1765999994744516000,19.31651611328125,0.1596647799015045,0.0768162459135055,0.4318813979625702,17.92517041015625
1765999994763296000,19.3352958984375,0.1802814751863479,0.2147189676761627,0.499381959438324,17.943950195312503
1765999994782075600,19.35407568359375,0.2612210512161255,0.1974620372056961,0.5355756878852844,17.96272998046875
1765999994800855300,19.37285522460937,0.3797288239002228,0.0322231166064739,0.5148062705993652,17.981509521484373
1765999994819635000,19.391635009765626,0.5044979453086853,-0.2753472924232483,0.4237874448299408,18.000289306640628
1765999994838414800,19.410414794921877,0.5831468105316162,-0.5670352578163147,0.2622137069702148,18.01906909179688
1765999994857194500,19.429194580078125,0.5868119597434998,-0.6843212842941284,0.0198531057685613,18.037848876953127
1765999994875974100,19.44797412109375,0.5504655241966248,-0.5381718873977661,-0.3179551064968109,18.056628417968753
1765999994894753800,19.46675390625,0.5397753715515137,-0.3451386094093323,-0.6869174242019653,18.075408203125
1765999994913533400,19.485533447265624,0.5849793553352356,-0.1443168073892593,-1.0386228561401367,18.094187744140626
1765999994932313300,19.504313232421875,0.6026944518089294,-0.0403170771896839,-1.3946043252944946,18.112967529296878
1765999994951093000,19.523093017578127,0.5883391499519348,-0.0978910773992538,-1.766468167304993,18.13174731445313
1765999994969872600,19.54187255859375,0.5452731847763062,-0.2820668220520019,-2.1554362773895264,18.15052685546875
1765999994988652300,19.56065234375,0.5382482409477234,-0.551152765750885,-2.5271475315093994,18.169306640625003
1765999995007432200,19.57943212890625,0.625907301902771,-0.8266527652740479,-2.88862681388855,18.188086425781254
1765999995026211800,19.5982119140625,0.7625883221626282,-1.2322670221328735,-3.1538949012756348,18.206866210937502
1765999995044991500,19.616991455078125,0.898200273513794,-1.6898046731948853,-3.283703565597534,18.225645751953127
1765999995063771100,19.635771240234376,1.045266032218933,-1.9923354387283323,-3.089754104614258,18.24442553710938
1765999995082551000,19.654551025390624,0.8830813765525818,-3.023475170135498,-1.8730641603469849,18.263205322265627
1765999995101330700,19.67333056640625,0.7137191295623779,-1.2993093729019165,-2.003942012786865,18.281984863281252
1765999995120110300,19.6921103515625,0.941113531589508,-0.5343539714813232,-1.886197686195373,18.300764648437504
1765999995138890000,19.710889892578123,0.8413898944854736,0.9833396077156068,-1.5364776849746704,18.319544189453126
1765999995167059700,19.739059814453125,0.1879172772169113,3.118617296218872,-1.238833785057068,18.347714111328127
1765999995185839400,19.75783935546875,-0.0371863916516304,2.863581418991089,-0.9856303334236144,18.366493652343753
1765999995204619000,19.776618896484376,-0.0897207632660865,1.8617631196975708,-0.782365083694458,18.385273193359378
1765999995223398700,19.795398681640624,-0.0232892204076051,0.9954041838645936,-0.5806269645690918,18.404052978515626
1765999995242178600,19.814178466796875,0.090637058019638,0.6108647584915161,-0.3411679863929748,18.422832763671877
1765999995260958200,19.832958251953126,0.1263726502656936,0.8254310488700867,-0.0992655232548713,18.44161254882813
1765999995279737900,19.85173779296875,0.0819322392344474,1.3752093315124512,0.1307250559329986,18.46039208984375
1765999995298517500,19.870517578125,0.0770453214645385,1.7117958068847656,0.3561341762542724,18.479171875000002
1765999995317297400,19.88929736328125,0.0550541877746582,1.577100157737732,0.5673406720161438,18.497951660156254
1765999995336077000,19.9080771484375,0.0316886119544506,1.2089014053344729,0.758083164691925,18.5167314453125
1765999995354856700,19.926856689453125,0.007559451740235,0.8587231636047363,0.9317215085029602,18.535510986328127
1765999995373636400,19.94563623046875,0.0202348958700895,0.6424770355224609,1.1001675128936768,18.554290527343753
1765999995392416300,19.964416259765624,-0.0022143847309052,0.5645917654037476,1.2655590772628784,18.573070556640626
1765999995411196000,19.98319580078125,-0.0588720925152301,0.633619487285614,1.4190388917922974,18.591850097656252
1765999995429975600,20.0019755859375,-0.0979674383997917,0.7976366877555847,1.562897562980652,18.610629882812503
1765999995448755200,20.020755126953127,-0.1324812918901443,0.9405790567398072,1.7050763368606567,18.62940942382813
1765999995467535000,20.03953515625,-0.1427132785320282,0.9877683520317078,1.8252639770507808,18.648189453125003
1765999995486314800,20.058314697265622,-0.1451567411422729,0.9214895367622375,1.924834966659546,18.666968994140625
1765999995505094400,20.077094482421877,-0.1442404389381408,0.7661771774291992,2.024100542068481,18.68574877929688
1765999995523874000,20.0958740234375,-0.2002872824668884,0.6136136651039124,2.1140503883361816,18.7045283203125
1765999995542654000,20.114654052734377,-0.2813795804977417,0.5740602016448975,2.1806344985961914,18.72330834960938
1765999995561433600,20.13343359375,-0.3288743197917938,0.6044507026672363,2.2032365798950195,18.742087890625
1765999995580213200,20.152213134765624,-0.3465894162654876,0.6304124593734741,2.1697916984558105,18.760867431640627
1765999995598993000,20.17099291992188,-0.3242928385734558,0.6560688018798828,2.077856540679932,18.77964721679688
1765999995617772800,20.189772705078123,-0.2500727772712707,0.5482511520385742,1.9512548446655276,18.798427001953126
1765999995636552400,20.20855249023437,-0.1628718227148056,0.2614501118659973,1.7959424257278442,18.817206787109374
1765999995655332000,20.22733203125,-0.1048396676778793,-0.0664315447211265,1.638339281082153,18.835986328125003
1765999995674111700,20.24611181640625,-0.0526107288897037,-0.3692677617073059,1.4760019779205322,18.85476611328125
1765999995692891600,20.2648916015625,-0.011530072428286,-0.6467530727386475,1.3122903108596802,18.873545898437502
1765999995711671300,20.28367138671875,0.0151952616870403,-0.8416189551353455,1.14017915725708,18.892325683593754
1765999995730451000,20.302450927734377,0.0567340664565563,-0.994640588760376,0.9669989347457886,18.91110522460938
1765999995749230600,20.321230712890625,0.104076087474823,-1.1139118671417236,0.7988584041595459,18.929885009765627
1765999995768010500,20.34001049804688,0.1407279670238495,-1.192560791969299,0.6409498453140259,18.948664794921882
1765999995786790100,20.3587900390625,0.1564577370882034,-1.254563570022583,0.4909825623035431,18.967444335937504
1765999995805569800,20.37756982421875,0.1453094631433487,-1.3028218746185305,0.3457494676113128,18.986224121093752
1765999995824349400,20.39634936523437,0.0793360620737075,-1.3196206092834473,0.18280129134655,19.005003662109374
1765999995843129300,20.41512939453125,-0.0487928241491317,-1.2035562992095947,-0.0306959543377161,19.02378369140625
1765999995861909000,20.433908935546874,-0.1654679924249649,-0.9118683934211732,-0.259312093257904,19.042563232421877
1765999995880688600,20.45268872070313,-0.2593884468078613,-0.4034761786460876,-0.5926915407180786,19.06134301757813
1765999995899468300,20.47146826171875,-0.2806160151958465,0.2412915825843811,-1.1369720697402954,19.080122558593754
1765999995918248200,20.490248291015625,-0.1204167231917381,0.3746128380298614,-1.0454950332641602,19.098902587890628
1765999995937027800,20.50902783203125,0.1039233729243278,0.4529562294483185,-0.8582650423049927,19.117682128906253
1765999995955807500,20.52780737304688,0.2056323587894439,0.1411097645759582,-0.6323977708816528,19.136461669921882
1765999995974587400,20.54658740234375,-0.0237473677843809,-0.2927569448947906,-0.2622137069702148,19.155241699218752
1765999995993367000,20.565366943359376,-0.0585666596889495,-0.2434296160936355,0.0345138609409332,19.174021240234378
1765999996012146700,20.584146728515623,0.0038942629471421,-0.0624609254300594,0.2350302189588546,19.192801025390626
1765999996030926300,20.60292626953125,0.1239291951060295,0.1186604797840118,0.342542439699173,19.21158056640625
1765999996049706200,20.621706298828126,0.1283579617738723,0.080481432378292,0.4170679152011871,19.23036059570313
1765999996068486000,20.64048583984375,0.1353829056024551,0.0577267222106456,0.476321816444397,19.24914013671875
1765999996087265500,20.659265625,0.2092975378036499,0.0455094277858734,0.5444332361221313,19.267919921875002
1765999996106045200,20.678045166015625,0.275270938873291,0.0476474538445472,0.6215549111366272,19.286699462890628
1765999996124825000,20.6968251953125,0.3300960659980774,0.0048869182355701,0.6583595275878906,19.3054794921875
1765999996143604700,20.715604736328125,0.4053851366043091,-0.1988364905118942,0.5949822664260864,19.324259033203127
1765999996162384400,20.73438427734375,0.5643627047538757,-0.5384773015975952,0.4367683231830597,19.343038574218753
1765999996181164300,20.753164306640624,0.8274927139282227,-0.8545998334884644,0.2319758981466293,19.361818603515626
1765999996199944000,20.77194384765625,1.0559561252593994,-0.9720385670661926,-0.0041233371011912,19.380598144531252
1765999996218723600,20.7907236328125,1.0020473003387451,-0.7896954417228699,-0.3387245237827301,19.399377929687503
1765999996237503200,20.809503173828126,0.9040035009384156,-0.3454440236091614,-0.7428115606307983,19.41815747070313
1765999996256283100,20.828283203125,0.9667698740959167,0.3011563420295715,-1.165682673454285,19.436937500000003
