time,seconds_elapsed,z,y,x,t
1765999999305641200,23.87764111328125,-2.144248008728028,-0.8810853958129883,-0.9839000105857848,22.507422607421873
1765999999324420900,23.8964208984375,-2.062978029251098,-0.2423439025878906,-1.3159737586975098,22.526202392578124
1765999999343200800,23.91520068359375,-1.8500781059265137,0.2624588012695312,-1.2695496082305908,22.544982177734372
1765999999361980400,23.93398046875,-1.7843985557556152,0.1579198837280273,-1.1051207780838013,22.563761962890624
1765999999380760000,23.952760009765623,-1.7033536434173584,-0.0207796096801757,-1.1955894231796265,22.582541503906246
1765999999399540000,23.9715400390625,-1.38812255859375,0.2059822082519531,-1.2115861177444458,22.601321533203123
1765999999418319600,23.990319580078125,-1.3645176887512207,0.6583652496337891,-1.1336275339126587,22.62010107421875
1765999999446489300,24.0184892578125,-1.4265468120574951,0.5981655120849609,-0.995484471321106,22.648270751953124
1765999999465269000,24.03726904296875,-1.4158291816711426,0.274144172668457,-0.7557944059371948,22.667050537109372
1765999999484048600,24.05604858398437,-1.290872573852539,0.4992933273315429,-0.6949390172958374,22.685830078124994
1765999999502828500,24.07482861328125,-0.988333225250244,0.7737016677856445,-0.7002042531967163,22.704610107421875
1765999999521608200,24.093608154296877,-0.6042590141296387,0.9179210662841796,-0.6728989481925964,22.7233896484375
1765999999540387800,24.112387939453125,-0.6317863464355469,1.0565614700317385,-0.5562043190002441,22.742169433593748
1765999999559167700,24.131167724609377,-0.5027947425842285,0.9647655487060548,-0.5513083338737488,22.76094921875
1765999999587337200,24.15933715820313,-0.2785048484802246,0.7695260047912598,-0.2439925372600555,22.789118652343753
1765999999606117000,24.1781171875,-0.1145968437194824,0.7421197891235352,0.2409267425537109,22.807898681640623
1765999999624896800,24.196896728515625,-0.0174670219421386,0.7342414855957031,0.6391367316246033,22.82667822265625
1765999999643676400,24.215676513671877,-0.1236157417297363,0.6050982475280762,1.008467197418213,22.8454580078125
1765999999662456300,24.234456298828125,-0.0539526939392089,0.5655512809753418,1.3863025903701782,22.864237792968748
1765999999681236000,24.253236083984376,0.2221598625183105,1.6683659553527832,1.98329758644104,22.883017578125
1765999999700015600,24.272015625,2.0648458003997803,2.624530792236328,2.4386661052703857,22.901797119140625
1765999999718795500,24.29079541015625,2.3438057899475098,2.8174362182617188,0.8765143156051636,22.920576904296873
1765999999737575200,24.3095751953125,2.7806200981140137,5.216279029846191,-1.4439198970794678,22.939356689453124
1765999999756355000,24.32835498046875,4.944926261901856,6.628695487976074,-1.6012846231460571,22.958136474609372
1765999999775134700,24.347134765625,4.826578617095947,5.331307411193848,-2.052046537399292,22.976916259765623
1765999999793914400,24.365914306640622,4.147575855255127,4.778079032897949,-2.1177122592926025,22.995695800781245
1765999999812694300,24.3846943359375,3.15567684173584,3.9937820434570312,-2.3471267223358154,23.014475830078123
1765999999831474000,24.403473876953125,1.949448585510254,2.931259155273437,-1.9363465309143064,23.033255371093748
1765999999850253600,24.422253662109377,1.0838751792907717,2.2079057693481445,-1.433018445968628,23.05203515625
1765999999869033500,24.441033447265625,1.215984582901001,1.5784683227539062,-1.2501637935638428,23.070814941406248
1765999999887813000,24.45981323242188,1.230205535888672,1.1582698822021484,-0.8753073215484619,23.089594726562503
1765999999906592800,24.4785927734375,0.7242546081542969,1.109837532043457,-0.2251641005277633,23.108374267578125
1765999999925372700,24.49737255859375,0.828742504119873,1.354999542236328,0.373212993144989,23.127154052734372
1765999999944152300,24.51615234375,0.4094715118408203,1.2006893157958984,0.4090079963207245,23.145933837890624
1765999999962932200,24.53493212890625,0.4586353302001953,0.6939764022827148,0.7587587833404541,23.16471362304687
1765999999981712000,24.5537119140625,0.5237545967102051,0.6502199172973633,1.342298150062561,23.183493408203123
1766000000000491500,24.57249145507813,0.3715672492980957,1.158498764038086,1.4186842441558838,23.202272949218752
1766000000019271400,24.591271484375,0.4813838005065918,1.455974578857422,1.0282461643218994,23.221052978515623
1766000000038051000,24.610051025390625,0.2398829460144043,1.4228277206420898,0.7731301784515381,23.239832519531248
1766000000056830700,24.62883081054688,0.0661153793334961,1.6086978912353516,0.7930188775062561,23.258612304687503
1766000000085000400,24.65700048828125,-0.2396371364593505,0.9709920883178712,0.6902591586112976,23.28678198242187
1766000000103780000,24.675780029296877,-0.6953930854797363,0.7631807327270508,1.670976161956787,23.3055615234375
1766000000122560000,24.69456005859375,-0.7519280910491943,1.2087945938110352,2.6359305381774902,23.324341552734374
1766000000141339600,24.713339599609377,-0.41136634349823,1.5120458602905271,2.82647705078125,23.34312109375
1766000000160119600,24.73211962890625,-3.494555950164795,-2.0513477325439453,2.688734769821167,23.361901123046874
1766000000178899200,24.75089916992188,-2.494881629943848,-0.5175857543945312,-5.828064441680908,23.380680664062503
1766000000197678800,24.769678955078124,-0.3248312473297119,3.382391929626465,-1.567552089691162,23.399460449218747
1766000000216458800,24.788458740234372,-0.5025907754898071,-0.9208297729492188,3.830523729324341,23.418240234374995
1766000000235238400,24.80723828125,-1.1439900398254397,-1.098602294921875,4.3791046142578125,23.437019775390624
1766000000254018000,24.82601806640625,-1.0942785739898682,0.8237037658691406,3.464073181152344,23.455799560546872
1766000000272798000,24.8447978515625,-1.652867078781128,-0.4490041732788086,1.5369704961776731,23.474579345703123
1766000000291577600,24.86357763671875,-2.11152982711792,-2.0478663444519043,-0.5490805506706238,23.493359130859375
1766000000310357500,24.882357421875,-2.5952062606811523,-2.437368392944336,-1.2277679443359375,23.512138916015623
1766000000329137200,24.90113720703125,-3.0288302898406982,-2.1596999168396,-0.7519823312759399,23.530918701171874
1766000000347916800,24.91991674804688,-3.34871768951416,-2.246112823486328,0.0754787921905517,23.549698242187503
1766000000366696700,24.93869677734375,-3.403717041015625,-2.654684543609619,0.1175448894500732,23.568478271484373
1766000000385476400,24.957476318359376,-3.040780544281006,-3.0271759033203125,-0.5991842746734619,23.5872578125
1766000000404256000,24.976256103515624,-2.838616847991944,-3.2003979682922363,-0.8468048572540283,23.606037597656247
1766000000423036000,24.995035888671875,-2.86587905883789,-3.217708110809326,-0.7922881841659546,23.6248173828125
1766000000441815600,25.013815673828127,-3.0270323753356934,-3.353281021118164,-0.5606869459152222,23.64359716796875
1766000000460595200,25.03259521484375,-3.371208667755127,-3.433971405029297,-0.2723302245140075,23.66237670898437
1766000000479375000,25.051375,-3.5772969722747803,-3.381176471710205,-0.3908584117889404,23.681156494140623
1766000000498154800,25.07015478515625,-3.6489553451538086,-3.171358108520508,-0.815328061580658,23.699936279296875
1766000000516934700,25.0889345703125,-3.4018828868865967,-2.7599892616271973,-1.2544925212860107,23.718716064453123
1766000000545104100,25.117104248046875,-2.7582831382751465,-1.9810590744018557,-1.400862216949463,23.746885742187498
1766000000563884000,25.135884033203126,-2.4108612537384038,-1.490983009338379,-1.1994266510009766,23.76566552734375
1766000000582663700,25.15466357421875,-2.2600135803222656,-1.2032957077026367,-0.6770939230918884,23.78444506835937
1766000000601443300,25.173443359375,-2.1579651832580566,-1.0680246353149414,-0.3639348149299621,23.803224853515623
1766000000620223200,25.19222314453125,-2.2131688594818115,-0.9047393798828124,-0.3262417316436767,23.822004638671874
1766000000639003000,25.2110029296875,-2.2220022678375244,-0.7176876068115234,-0.0868654251098632,23.840784423828122
1766000000657782800,25.22978271484375,-2.2303569316864014,-0.3230972290039062,-0.1958869993686676,23.859564208984374
1766000000676562400,25.2485625,-2.1992640495300293,0.1042814254760742,-0.8011614084243774,23.87834399414062
1766000000695342000,25.267342041015624,-2.0209035873413086,0.3579874038696289,-1.4097764492034912,23.897123535156247
1766000000714122000,25.2861220703125,-1.98075008392334,0.3877725601196289,-1.567602038383484,23.915903564453124
1766000000732901600,25.304901611328123,-2.028779983520508,0.8653488159179688,-1.976886868476868,23.934683105468746
1766000000751681500,25.323681640625,-1.748430252075195,1.6986103057861328,-2.113725423812866,23.953463134765624
1766000000770461200,25.342461181640623,-1.2646636962890625,2.069918632507324,-2.278412103652954,23.972242675781246
1766000000789240800,25.36124072265625,-0.908905029296875,1.8321990966796875,-2.1223764419555664,23.991022216796875
1766000000808020700,25.38002075195313,-0.7352752685546875,1.4178667068481443,-1.5775171518325806,24.009802246093752
1766000000826800400,25.39880029296875,-0.7257418632507324,1.3068103790283203,-1.0239481925964355,24.028581787109374
1766000000845580300,25.417580322265625,-0.5465073585510254,1.6671900749206543,-0.60579913854599,24.047361816406248
1766000000864360000,25.43635986328125,-0.21476411819458,1.9195671081542969,-0.1435156017541885,24.066141357421873
1766000000883139600,25.4551396484375,-0.1575264930725097,1.4699277877807615,0.6106662750244141,24.08492114257812
1766000000901919500,25.47391943359375,-0.2738142013549804,0.8165817260742188,1.491177320480347,24.103700927734373
1766000000920699100,25.49269921875,-0.1340761184692382,0.5841064453125,1.8389291763305664,24.122480712890624
1766000000948868900,25.520868896484377,-0.4073934555053711,1.6073756217956543,2.402021169662476,24.150650390625
1766000000967648500,25.5396484375,2.4021098613739014,2.967754364013672,2.9569900035858154,24.16942993164062
1766000000986428200,25.55842822265625,3.3294310569763184,3.740077018737793,1.5377190113067627,24.188209716796873
1766000001005208000,25.5772080078125,3.584025859832764,5.70719051361084,-0.747064471244812,24.206989501953124
1766000001023987700,25.59598779296875,5.335195541381836,5.521219253540039,-1.1654014587402344,24.225769287109372
1766000001042767600,25.614767578125,5.280906200408936,3.7542686462402335,-1.742762565612793,24.244549072265624
1766000001061547300,25.63354736328125,4.657801628112793,3.5979700088500977,-2.8925349712371826,24.26332885742187
1766000001080327200,25.6523271484375,3.4343066215515137,3.853861808776856,-2.6839945316314697,24.282108642578123
1766000001099106800,25.67110693359375,2.3503458499908447,2.8572912216186523,-1.9439293146133425,24.300888427734375
1766000001117886500,25.689886474609374,2.1693599224090576,1.4269790649414062,-0.92274010181427,24.319667968749997
1766000001136666400,25.708666259765625,1.7143144607543943,1.0411052703857422,-0.0998001992702484,24.338447753906248
1766000001155446000,25.72744604492188,1.5141267776489258,1.1029081344604492,0.4999310374259949,24.357227539062503
1766000001183615700,25.75561572265625,1.1303339004516602,1.154378890991211,1.324407935142517,24.38539721679687
1766000001202395400,25.7743955078125,0.8185548782348633,0.952219009399414,1.6963101625442505,24.404177001953123
1766000001221175000,25.793175048828125,1.078641414642334,0.9650259017944336,2.1459758281707764,24.42295654296875
1766000001239955000,25.811954833984377,1.1097044944763184,1.2664766311645508,1.9026590585708616,24.441736328125
1766000001258734600,25.830734619140625,1.1838364601135254,1.5786991119384766,1.259152054786682,24.460516113281248
1766000001286904300,25.858904296875,0.9592480659484864,1.4891138076782229,0.777142345905304,24.488685791015623
1766000001305684000,25.87768408203125,0.646820068359375,1.725749969482422,0.993088960647583,24.507465576171874
1766000001324463900,25.8964638671875,0.210888385772705,1.953690528869629,0.449553519487381,24.526245361328122
1766000001343243500,25.915243408203125,0.1332142353057861,1.951925277709961,0.3612789213657379,24.545024902343748
