time,seconds_elapsed,z,y,x,t
1765999989204508400,13.77650830078125,0.6509527564048767,0.033902995288372,-1.6858340501785278,12.38516259765625
1765999989223288000,13.7952880859375,0.4545597434043884,0.7930551767349243,-1.3031272888183594,12.403942382812499
1765999989242067700,13.814067626953126,0.2885572612285614,1.5529710054397583,-0.953254461288452,12.422721923828124
1765999989260847400,13.832847412109375,0.2418260872364044,1.9373576641082764,-0.6779071688652039,12.441501708984374
1765999989279627000,13.851626953125,0.2903898358345032,2.162308692932129,-0.3926333487033844,12.46028125
1765999989298406700,13.87040673828125,0.3438405096530914,2.148716926574707,-0.077732540667057,12.47906103515625
1765999989317186300,13.889186279296876,0.3898080885410309,2.031736373901367,0.231212317943573,12.497840576171875
1765999989335966000,13.907966064453126,0.4185187220573425,1.994168043136597,0.5099193453788757,12.516620361328124
1765999989354745600,13.92674560546875,0.4380663931369781,1.995237112045288,0.7351757884025574,12.535399902343748
1765999989373525200,13.945525146484377,0.4918225109577179,1.9411755800247192,0.9075923562049866,12.554179443359375
1765999989392305000,13.964304931640624,0.5103011727333069,1.7139338254928589,1.0684025287628174,12.572959228515623
1765999989411084800,13.983084716796874,0.5077049732208252,1.4228568077087402,1.2205078601837158,12.591739013671873
1765999989429864400,14.001864501953126,0.4664716124534607,1.190422773361206,1.378721833229065,12.610518798828124
1765999989448644000,14.02064404296875,0.3841575980186462,1.0418298244476318,1.5349504947662354,12.629298339843748
1765999989467423700,14.039423828125,0.3291797637939453,1.0314451456069946,1.681710720062256,12.648078125
1765999989486203400,14.058203369140625,0.2972620725631714,1.1255183219909668,1.8046473264694212,12.666857666015623
1765999989504983000,14.076983154296874,0.2867246568202972,1.1772891283035278,1.900247573852539,12.685637451171873
1765999989523762700,14.0957626953125,0.266566127538681,1.1533126831054688,1.9776747226715088,12.704416992187499
1765999989542542300,14.114542236328123,0.2377027571201324,1.0386228561401367,2.037081241607666,12.723196533203122
1765999989561322000,14.133322021484377,0.208839401602745,0.901483714580536,2.078772783279419,12.741976318359375
1765999989580101600,14.1521015625,0.1851683855056762,0.7875574231147766,2.106414556503296,12.760755859375
1765999989598881300,14.17088134765625,0.1813504844903946,0.7312051653862,2.1059563159942627,12.779535644531249
1765999989627050800,14.19905078125,0.2099084109067917,0.661413848400116,2.0665555000305176,12.807705078124998
1765999989645830700,14.21783056640625,0.2329685539007187,0.5393936038017273,2.0112721920013428,12.826484863281248
1765999989664610000,14.236610107421876,0.2357174456119537,0.3743073940277099,1.929569125175476,12.845264404296875
1765999989683390000,14.255389892578124,0.21479532122612,0.1927278339862823,1.8364121913909912,12.864044189453123
1765999989702169600,14.274169677734376,0.18990258872509,-0.0161879174411296,1.7333288192749023,12.882823974609375
1765999989720949200,14.29294921875,0.1601229310035705,-0.2061668634414672,1.6022982597351074,12.901603515624998
1765999989739729000,14.31172900390625,0.1224020272493362,-0.3486510813236236,1.4581341743469238,12.920383300781248
1765999989758508500,14.330508544921877,0.0843756943941116,-0.4851793646812439,1.2902991771697998,12.939162841796875
1765999989777288200,14.3492880859375,0.0393244214355945,-0.6247619390487671,1.1091777086257937,12.957942382812499
1765999989796067800,14.36806787109375,0.0089338971301913,-0.7012727856636047,0.9181297421455384,12.976722167968749
1765999989814847500,14.386847412109375,-0.0019089524867013,-0.7976366877555847,0.7250964641571045,12.995501708984374
1765999989833627100,14.405627197265623,-0.0063377222977578,-0.8721621632575989,0.5444332361221313,13.014281494140622
1765999989852406800,14.42440673828125,-0.0026725335046648,-0.8955277800559998,0.3607156574726105,13.03306103515625
1765999989880576300,14.452576171875,0.0155006935819983,-0.8596394658088684,0.1156061589717865,13.061230468749999
1765999989899356200,14.471356201171876,0.0214566253125667,-0.8067996501922607,-0.0245873071253299,13.080010498046875
1765999989918135800,14.4901357421875,0.0138208158314228,-0.7400626540184021,-0.1571449637413025,13.098790039062498
1765999989936915500,14.50891552734375,-0.0109192077070474,-0.6704241037368774,-0.2881754636764526,13.117569824218748
1765999989965085000,14.5370849609375,-0.1262199282646179,-0.5160280466079712,-0.5864301919937134,13.1457392578125
1765999989983864600,14.555864501953126,-0.2725220620632171,-0.1547015011310577,-0.921336829662323,13.164518798828125
1765999990002644200,14.574644287109376,-0.3105483949184418,0.0430659651756286,-0.989295482635498,13.183298583984374
1765999990021423900,14.593423828125,-0.1505018174648285,0.1687513887882232,-0.8378010392189026,13.202078124999998
1765999990040203500,14.61220361328125,-0.0365755297243595,0.2351829409599304,-0.776714563369751,13.22085791015625
1765999990058983200,14.630983154296874,-0.0119882216677069,0.009621120058,-0.796262264251709,13.239637451171873
1765999990077762800,14.6497626953125,-0.1143080741167068,-0.1136208474636077,-0.7338013052940369,13.258416992187499
1765999990096542500,14.66854248046875,-0.1912770271301269,-0.1606574356555938,-0.6232348084449768,13.277196777343748
1765999990134102000,14.70610205078125,-0.1665370166301727,0.1117882579565048,-0.2787070572376251,13.31475634765625
1765999990152881700,14.724881591796876,-0.1230128929018974,0.2141081094741821,-0.1237001195549964,13.333535888671875
1765999990171661300,14.743661376953124,-0.076129026710987,0.1653916388750076,0.0009162971982732,13.352315673828123
1765999990190441000,14.76244091796875,0.0217620581388473,0.1073594838380813,0.1067486181855201,13.371095214843749
1765999990209220600,14.781220703125,0.1433241516351699,0.1079703494906425,0.2257145345211029,13.389874999999998
1765999990228000300,14.800000244140625,0.2552651166915893,-0.0116064306348562,0.3257436454296112,13.408654541015624
1765999990246780000,14.81877978515625,0.3403280377388,-0.1968511790037155,0.4243983030319214,13.42743408203125
1765999990265559600,14.8375595703125,0.3630827665328979,-0.360868364572525,0.5146535634994507,13.446213867187499
1765999990284339200,14.856339111328126,0.3691914081573486,-0.4124864339828491,0.6374374032020569,13.464993408203124
1765999990303118800,14.875118896484375,0.363388180732727,-0.3488037884235382,0.703410804271698,13.483773193359374
1765999990321898800,14.893898681640623,0.3643044829368591,-0.2661843299865722,0.7137954831123352,13.502552978515622
1765999990340678400,14.912678466796876,0.3753000497817993,-0.1861610412597656,0.7096721529960632,13.521332763671875
1765999990359458000,14.9314580078125,0.4293615818023681,-0.2414443045854568,0.6817250847816467,13.540112304687499
1765999990378237700,14.95023779296875,0.516257107257843,-0.4161516427993774,0.564439058303833,13.558892089843749
1765999990397017300,14.969017333984375,0.5997928380966187,-0.6565269231796265,0.333684891462326,13.577671630859374
1765999990415797000,14.987796875,0.632168710231781,-0.8252783417701721,-0.1139262840151786,13.596451171875
1765999990434576600,15.00657666015625,0.5926151871681213,-0.90652334690094,-0.6907353401184082,13.61523095703125
1765999990453356300,15.025356201171874,0.4794524908065796,-1.1461350917816162,-1.287855625152588,13.634010498046873
1765999990472136000,15.044135986328126,0.3000109791755676,-1.32985258102417,-1.8008294105529783,13.652790283203124
1765999990490915800,15.062915771484375,0.0831539705395698,-1.4146101474761963,-2.2369868755340576,13.671570068359374
1765999990509695500,15.081695556640623,-0.0965929925441742,-1.3997966051101685,-2.6386303901672363,13.690349853515622
1765999990528475100,15.10047509765625,-0.1870009750127792,-1.2974767684936523,-2.972773551940918,13.70912939453125
1765999990547254800,15.1192548828125,-0.1912770271301269,-1.0595449209213257,-3.2505640983581543,13.727909179687499
1765999990566034400,15.138034423828126,-0.2181550860404968,-0.7145590782165527,-3.4965898990631104,13.746688720703125
1765999990584814000,15.15681396484375,-0.2984837889671325,-0.4086685478687286,-3.7235262393951416,13.765468261718748
1765999990603593700,15.17559375,-0.3766745030879974,-0.5754346251487732,-3.425729751586914,13.784248046875
1765999990622373400,15.194373291015625,-0.0106137758120894,-2.130849123001098,-2.737743139266968,13.803027587890623
1765999990641153000,15.213153076171874,-0.1077412739396095,-2.760498046875,-3.018435478210449,13.821807373046873
1765999990659933000,15.231932861328126,0.0220674909651279,-1.8603886365890503,-3.3434157371521,13.840587158203125
1765999990678712600,15.250712646484375,0.2586248815059662,0.505032479763031,-3.047909736633301,13.859366943359374
1765999990697492200,15.2694921875,-0.1614973694086074,3.0520331859588623,-2.565632104873657,13.878146484374998
1765999990716271900,15.28827197265625,-0.7277690172195435,4.0865325927734375,-1.6899573802947998,13.89692626953125
1765999990735051500,15.307051513671874,-0.6396517753601074,4.05217170715332,-1.4049890041351318,13.915705810546873
1765999990763221000,15.335220947265626,-0.0211511924862861,1.485623121261597,-1.0661118030548096,13.943875244140624
1765999990782000600,15.354000732421875,0.3581958413124084,0.574212908744812,-0.7573196291923523,13.962655029296874
1765999990800780300,15.3727802734375,0.581314206123352,0.5410735011100769,-0.4867065250873565,13.9814345703125
1765999990819560000,15.391559814453124,0.7248674035072327,0.819322407245636,-0.2098320573568344,14.000214111328123
1765999990838339800,15.41033984375,0.7619774341583252,1.0102176666259766,0.1038470119237899,14.018994140624999
1765999990857119500,15.429119384765626,0.7570905089378357,1.1733185052871704,0.4034761786460876,14.037773681640624
1765999990875899100,15.447899169921875,0.7688496708869934,1.2005020380020142,0.6169734001159668,14.056553466796874
1765999990894678800,15.4666787109375,0.789466381072998,1.0861176252365112,0.7829759120941162,14.0753330078125
1765999990913458400,15.48545849609375,0.8030580878257751,0.9651663303375244,0.9790635108947754,14.09411279296875
1765999990932238000,15.504238037109374,0.8416953086853027,0.8767436742782593,1.2108867168426514,14.112892333984373
1765999990951017700,15.523017822265626,0.8923971056938171,0.7539598345756531,1.4508038759231567,14.131672119140624
1765999990969797600,15.541797607421875,0.9111811518669128,0.5865828990936279,1.6949970722198486,14.150451904296874
1765999990988577300,15.560577392578123,0.8855248689651489,0.4789179861545563,1.929263710975647,14.169231689453122
1765999991007357000,15.57935693359375,0.8157335519790649,0.4954113364219665,2.1384849548339844,14.18801123046875
1765999991026136600,15.598136474609374,0.7040980458259583,0.6125446557998657,2.288146734237671,14.206790771484373
1765999991044916200,15.616916259765626,0.6153699159622192,0.7838922142982483,2.396880626678467,14.225570556640625
1765999991063696000,15.63569580078125,0.5616137981414795,0.9376774430274964,2.486677885055542,14.244350097656248
1765999991082475500,15.6544755859375,0.5284743905067444,0.9818124175071716,2.5387539863586426,14.2631298828125
1765999991101255200,15.673255126953125,0.5154935121536255,0.908355951309204,2.557080030441284,14.281909423828123
1765999991120035000,15.69203515625,0.5110647678375244,0.7516691088676453,2.5364632606506348,14.300689453124999
1765999991138814700,15.710814697265626,0.4967094361782074,0.5361865758895874,2.491106510162353,14.319468994140625
1765999991157594400,15.729594482421875,0.4707476794719696,0.2889390289783478,2.416733741760254,14.338248779296874
1765999991176374000,15.7483740234375,0.4344012141227722,0.1099556609988212,2.323271512985229,14.357028320312498
1765999991195153700,15.767153564453125,0.4194350242614746,0.013439024798572,2.1920883655548096,14.375807861328123
1765999991213933300,15.785933349609374,0.3992764949798584,-0.0445931293070316,2.0334160327911377,14.394587646484373
1765999991232713000,15.804712890625,0.3639990389347076,-0.1207985132932663,1.8654283285140991,14.413367187499999
