time,seconds_elapsed,z,y,x,t
1765999990056636000,14.628635986328124,1.4872567653656006,2.231534957885742,-0.2148178219795227,13.258417480468749
1765999990075415600,14.64741552734375,2.399521827697754,1.805337905883789,-0.4406492412090301,13.277197021484374
1765999990094195200,14.6661953125,2.905911922454834,1.5296354293823242,-0.8190311193466187,13.295976806640624
1765999990122364700,14.69436474609375,3.1553430557250977,1.866865158081055,-0.9336702227592468,13.324146240234375
1765999990141144300,14.713144287109374,3.169095277786255,1.7570199966430664,-1.516864776611328,13.342925781249999
1765999990159924000,14.731924072265626,2.9784274101257324,1.3471317291259766,-2.1159982681274414,13.36170556640625
1765999990178703600,14.75070361328125,2.704583168029785,1.1221246719360352,-2.542644739151001,13.380485107421874
1765999990197483300,14.769483154296877,2.5415639877319336,0.958928108215332,-2.4870541095733643,13.399264648437502
1765999990216263000,14.788262939453125,2.59852147102356,0.8898077011108398,-2.462116003036499,13.41804443359375
1765999990235042600,14.80704248046875,2.225677490234375,1.1901769638061523,-3.023958683013916,13.436823974609375
1765999990253822500,14.825822509765626,1.7569196224212646,1.2847967147827148,-2.558048963546753,13.45560400390625
1765999990281992000,14.853991943359375,1.7084577083587646,1.6156330108642578,-1.275046467781067,13.4837734375
1765999990300771600,14.872771484375,1.661362648010254,1.8078012466430664,-0.655049204826355,13.502552978515626
1765999990319551200,14.89155126953125,1.7674975395202637,1.897769927978516,0.0613861680030822,13.521332763671875
1765999990338331000,14.910330810546874,1.7484009265899658,1.8492364883422847,0.8679345846176147,13.540112304687499
1765999990375890200,14.94789013671875,0.2778077125549316,0.9809865951538086,1.1029893159866333,13.577671630859374
1765999990394669800,14.966669921875,-0.6545543670654297,0.2954044342041015,0.9692091345787048,13.596451416015626
1765999990413449500,14.985449462890625,-1.6672606468200684,-0.2807111740112304,0.9398089647293092,13.61523095703125
1765999990441619000,15.013618896484376,-0.9558930397033693,-0.290475845336914,0.4937648475170135,13.643400390625
1765999990460398800,15.03239892578125,-0.0334086418151855,-0.1188373565673828,0.5981101989746094,13.662180419921874
1765999990479178500,15.051178466796877,0.522735595703125,-0.0534095764160156,0.8877242207527161,13.680959960937502
1765999990497958100,15.069958251953125,0.3792221546173095,0.4459142684936523,1.1525986194610596,13.69973974609375
1765999990516737800,15.08873779296875,0.1799087524414062,1.2170515060424805,1.3382530212402344,13.718519287109375
1765999990535517400,15.107517333984376,-0.3622245788574219,1.7667770385742188,1.8389675617218015,13.737298828125
1765999990554297000,15.126297119140624,-0.8363500833511353,1.8870038986206052,2.426607608795166,13.756078613281248
1765999990573076700,15.14507666015625,-1.4324437379837036,1.3978290557861328,2.6519360542297363,13.774858154296874
1765999990591856400,15.1638564453125,-1.5956778526306152,0.7083311080932617,2.618683338165283,13.793637939453125
1765999990610636000,15.182635986328124,0.3250467479228973,-1.2033615112304688,0.558599054813385,13.81241748046875
1765999990629416000,15.201416015625,-4.676551342010498,0.2528600692749023,-6.155757427215576,13.831197509765625
1765999990648195600,15.220195556640626,-5.309048652648926,1.535740852355957,-4.703726768493652,13.84997705078125
1765999990666975200,15.238975341796875,-1.5018457174301147,1.0362520217895508,4.728126049041748,13.8687568359375
1765999990685755000,15.2577548828125,1.9072544574737549,-1.1444826126098633,11.971257209777832,13.887536376953125
1765999990704534500,15.276534423828124,1.373772382736206,-0.604069709777832,11.239494323730469,13.90631591796875
1765999990723314200,15.295314208984376,-2.657294273376465,0.5486516952514648,0.4623638689517975,13.925095703125
1765999990742093800,15.31409375,-1.4644649028778076,0.9636802673339844,-5.95079231262207,13.943875244140624
1765999990760873700,15.332873779296875,-0.5746099948883057,-1.0117740631103516,-7.99244213104248,13.9626552734375
1765999990779653000,15.351653076171877,-1.7386260032653809,-1.8990955352783203,-3.736309051513672,13.981434570312501
1765999990798433000,15.37043310546875,-2.495021343231201,-1.0506229400634766,-0.2300688028335571,14.000214599609375
1765999990817212700,15.389212646484374,-2.522085905075073,-0.8396091461181641,1.8810381889343264,14.018994140624999
1765999990835992300,15.407992431640626,-2.6474430561065674,-1.7644333839416504,2.3985729217529297,14.03777392578125
1765999990854772000,15.42677197265625,-3.326244831085205,-2.260958194732666,1.4052093029022217,14.056553466796874
1765999990873551600,15.445551513671877,-3.670577049255371,-2.182179450988769,-0.1483154296875,14.075333007812501
1765999990892331300,15.464331298828125,-3.4728238582611084,-2.243093967437744,-0.4148856401443481,14.09411279296875
1765999990911111000,15.48311083984375,-3.290332317352295,-2.296083927154541,0.0453318953514099,14.112892333984375
1765999990929890600,15.501890625,-3.1637990474700928,-1.990888595581055,-0.1980834603309631,14.131672119140624
1765999990948670500,15.52067041015625,-2.943275690078736,-1.6382036209106443,-0.7990728616714478,14.150451904296874
1765999990967450000,15.5394501953125,-2.509664535522461,-1.443084716796875,-1.080019235610962,14.169231689453126
1765999990986229800,15.558229736328125,-2.52930212020874,-1.429487228393555,-1.0565741062164309,14.18801123046875
1765999991005009400,15.577009521484374,-2.559699058532715,-1.462890625,-0.6429456472396851,14.206791015624999
1765999991023789000,15.5957890625,-2.6711697578430176,-1.2731037139892578,-0.073584496974945,14.225570556640625
1765999991042568700,15.614568603515623,-2.6228933334350586,-0.9360561370849608,0.0011827498674392,14.244350097656248
1765999991070738200,15.64273828125,-2.33974552154541,-0.4776716232299804,-0.1626865416765213,14.272519775390625
1765999991089518000,15.66151806640625,-2.160682439804077,-0.2113847732543945,-0.5092940330505371,14.291299560546875
1765999991108297700,15.680297607421876,-2.0040085315704346,0.1028404235839843,-1.026878833770752,14.3100791015625
1765999991127077400,15.699077392578126,-1.777066946029663,0.321807861328125,-1.4465854167938232,14.32885888671875
1765999991145857000,15.71785693359375,-1.620551347732544,0.497100830078125,-1.6166669130325315,14.347638427734374
1765999991164636700,15.73663671875,-1.464608669281006,0.5281333923339844,-1.475485920906067,14.366418212890625
1765999991192806100,15.76480615234375,-1.509117841720581,0.6641349792480469,-1.2337849140167236,14.394587646484375
1765999991211585800,15.783585693359376,-1.1975548267364502,0.8885288238525391,-0.9956806898117064,14.4133671875
1765999991230365700,15.80236572265625,-0.9642205238342284,1.2128477096557615,-0.8054413199424744,14.432147216796874
1765999991249145300,15.821145263671877,-0.7344298362731934,1.5254430770874023,-0.944040834903717,14.450926757812502
1765999991267925000,15.839925048828125,-0.6006126403808594,1.5859975814819336,-1.0463396310806274,14.46970654296875
1765999991286704600,15.85870458984375,-0.2627148628234863,1.3317337036132812,-0.7029601335525513,14.488486083984375
1765999991305484300,15.877484375,-0.1319642066955566,1.2267322540283203,-0.4214647114276886,14.507265869140625
1765999991324264000,15.896263916015624,0.199108600616455,1.431793212890625,-0.3498856425285339,14.526045410156248
1765999991343043600,15.915043701171877,0.1047501564025878,1.4155511856079102,-0.2981157898902893,14.544825195312502
1765999991361823200,15.9338232421875,0.3150978088378906,1.163283348083496,-0.1481673419475555,14.563604736328125
1765999991380603100,15.95260302734375,0.7352423667907715,1.0105838775634766,0.300820529460907,14.582384521484375
1765999991399382800,15.9713828125,0.7134923934936523,1.1557683944702148,0.4451915919780731,14.601164306640625
1765999991418162400,15.990162353515624,0.3269057273864746,1.255939483642578,0.3218817710876465,14.619943847656248
1765999991436942000,16.008942138671873,0.3063807487487793,1.1650028228759766,0.5791845321655273,14.638723632812498
1765999991455721700,16.0277216796875,0.5143766403198242,1.092123031616211,0.6942461729049683,14.657503173828124
1765999991474501400,16.04650146484375,0.6164426803588867,1.0340728759765625,0.8776984214782715,14.676282958984375
1765999991493281300,16.06528125,0.5736899375915527,0.9279260635375975,0.9414139986038208,14.695062744140627
1765999991512061000,16.08406103515625,0.5055227279663086,0.7095146179199219,0.7957572937011719,14.713842529296874
1765999991530840600,16.102840576171875,0.5841455459594727,0.3249425888061523,0.8271066546440125,14.7326220703125
1765999991559010000,16.131010009765625,0.2205796241760254,0.0984687805175781,1.263754963874817,14.76079150390625
1765999991577789700,16.149789794921876,-0.1577510833740234,0.0907583236694336,1.5331556797027588,14.7795712890625
1765999991596569300,16.1685693359375,0.2525978088378906,-0.4329557418823242,1.9748904705047607,14.798350830078126
1765999991615349200,16.187349365234375,2.0420095920562744,0.0691537857055664,2.574637651443481,14.817130859375
1765999991634129000,16.20612890625,2.324897289276123,1.6502676010131836,3.8734610080718994,14.835910400390626
1765999991652908500,16.224908447265626,2.714336395263672,2.2566442489624023,2.520350933074951,14.854689941406251
1765999991671688200,16.243688232421874,3.21142315864563,1.540604591369629,-0.499569296836853,14.873469726562499
1765999991690467800,16.2624677734375,3.462905168533325,1.098708152770996,-2.0549418926239014,14.892249267578125
1765999991709247500,16.28124755859375,2.8563127517700195,1.2881717681884766,-1.9285736083984373,14.911029052734376
1765999991728027100,16.300027099609373,2.28096604347229,1.6631927490234375,-1.8284038305282595,14.929808593749998
1765999991746807000,16.31880712890625,2.40729022026062,1.729389190673828,-1.6822699308395386,14.948588623046875
1765999991765586700,16.337586669921876,2.9337968826293945,1.6777496337890625,-1.1659317016601562,14.967368164062501
1765999991784366300,16.356366455078124,3.4040822982788086,1.5564584732055664,-0.3540322780609131,14.986147949218749
1765999991803146000,16.37514599609375,3.81972885131836,1.7430944442749023,0.1278470456600189,15.004927490234374
1765999991821925600,16.393925537109375,3.6058950424194336,2.0151538848876958,0.0745255351066589,15.02370703125
1765999991840705300,16.412705322265627,3.003546476364136,2.104857444763184,-0.3369183838367462,15.042486816406251
1765999991859485200,16.431485107421874,2.0243310928344727,1.9536190032958984,-0.1184193193912506,15.0612666015625
1765999991878264800,16.450264892578126,1.5822808742523191,1.8863601684570312,0.3372376263141632,15.08004638671875
1765999991897044500,16.46904443359375,1.203929424285889,2.039675712585449,1.2421802282333374,15.098825927734376
1765999991915824000,16.48782421875,0.4341959953308105,2.407586097717285,1.862398982048035,15.117605712890624
1765999991934603800,16.506603759765625,0.3664379119873047,2.654142379760742,2.00882339477539,15.13638525390625
1765999991953383400,16.525383544921876,0.2520809173583984,2.252938270568848,2.1123950481414795,15.155165039062501
1765999991972163000,16.5441630859375,0.0023136138916015,1.902632713317871,2.595160722732544,15.173944580078127
1765999991990943000,16.56294287109375,-0.5225396156311035,2.014171600341797,1.887035608291626,15.192724365234374
1765999992009722600,16.58172265625,-0.918830156326294,2.2508792877197266,0.0994263291358947,15.211504150390626
1765999992028502300,16.600502197265627,-0.6280715465545654,2.1793994903564453,-1.804014086723328,15.230283691406251
1765999992047282000,16.619281982421874,-0.9186031818389891,1.874820709228516,-3.3067169189453125,15.2490634765625
1765999992066061600,16.6380615234375,-1.4836792945861816,0.826202392578125,-3.358190059661865,15.267843017578125
1765999992084841200,16.65684130859375,-1.9894556999206543,-0.0581159591674804,-1.9215924739837649,15.286622802734376
1765999992103621000,16.67562109375,-7.355093002319336,-4.872495174407959,0.9712398052215576,15.305402587890624
