time,seconds_elapsed,z,y,x,t
1765999998272756000,22.844755859375,-0.4774446487426758,0.179692268371582,-0.0485275387763977,21.474537353515622
1765999998291535600,22.86353564453125,-0.1957173347473144,0.7207794189453125,0.3226252198219299,21.493317138671873
1765999998310315300,22.88231518554688,0.1956191062927246,1.3204593658447266,0.3670330047607422,21.512096679687502
1765999998329095000,22.901094970703124,1.9194104671478271,3.988665580749512,0.4147148728370666,21.530876464843747
1765999998347874800,22.91987475585937,5.159729480743408,5.662409782409668,-1.518913984298706,21.549656249999995
1765999998366654500,22.938654541015627,5.105286598205566,9.933416366577148,-4.789294719696045,21.56843603515625
1765999998385434000,22.95743408203125,5.987936973571777,8.72363567352295,-5.296306133270264,21.58721557617187
1765999998404214000,22.97621411132813,4.044061183929443,3.9950180053710938,-2.792405128479004,21.605995605468753
1765999998422993700,22.99499365234375,2.097085952758789,1.3415765762329102,-0.8191864490509033,21.624775146484374
1765999998441773300,23.013773193359373,1.1013553142547607,0.1733942031860351,0.8211953639984131,21.643554687499996
1765999998469943000,23.04194311523437,0.2133622169494629,0.0860042572021484,2.349527597427368,21.671724609374994
1765999998488722700,23.06072265625,0.2220110893249511,-0.1067218780517578,2.350588083267212,21.690504150390623
1765999998507502300,23.07950244140625,0.797457218170166,-0.476541519165039,1.8134015798568728,21.709283935546875
1765999998526282200,23.0982822265625,0.9730000495910645,-0.7368860244750977,1.5799529552459717,21.728063720703123
1765999998545062000,23.117061767578125,0.7427232265472412,-0.718449592590332,1.264462947845459,21.746843261718748
1765999998563841800,23.135841796875,0.9060173034667968,-0.42279052734375,1.1976245641708374,21.765623291015622
1765999998582621400,23.154621337890624,1.2699737548828125,0.1462993621826172,1.2130076885223389,21.784402832031247
1765999998601401000,23.17340112304688,1.268899917602539,0.3122205734252929,1.6782126426696775,21.803182617187503
1765999998620181000,23.192180908203124,1.0411546230316162,0.3024501800537109,1.8518004417419436,21.821962402343747
1765999998638960600,23.21096069335937,0.8355522155761719,0.2000770568847656,1.4491662979125977,21.840742187499995
1765999998657740300,23.229740234375,0.1474864482879638,0.5579547882080078,0.5906189680099487,21.859521728515624
1765999998676520000,23.24852001953125,0.2801730632781982,1.252629280090332,-0.5347253084182739,21.87830151367187
1765999998695299800,23.2672998046875,0.7812955379486084,1.7802038192749023,-1.0875511169433594,21.897081298828123
1765999998714079500,23.28607958984375,1.3732149600982666,1.8981342315673828,-0.6650243997573853,21.915861083984375
1765999998732859400,23.304859375,1.6266200542449951,2.01984977722168,0.4269570410251617,21.934640869140622
1765999998751639000,23.32363916015625,1.0294189453125,2.1238698959350586,1.0396451950073242,21.953420654296874
1765999998770418700,23.34241870117188,-0.006211519241333,1.9196224212646484,0.9197745323181152,21.972200195312503
1765999998789198600,23.361198486328124,-0.8056067228317261,2.3576889038085938,0.5597536563873291,21.990979980468747
1765999998807978200,23.379978271484376,-0.722831130027771,2.5493335723876958,-0.0481055527925491,22.009759765625
1765999998826758000,23.3987578125,-0.2995738387107849,1.6306781768798828,-0.0315354466438293,22.028539306640624
1765999998845537800,23.417537841796875,1.5009299516677856,-0.7056951522827148,0.4794018864631653,22.047319335937498
1765999998864317400,23.4363173828125,-5.40985107421875,-1.3231935501098633,-4.768942832946777,22.066098876953124
1765999998883097000,23.45509716796875,-2.8220362663269043,1.180929183959961,-5.085362434387207,22.08487866210937
1765999998901877000,23.473876953125,-3.688465833663941,0.5747823715209961,2.495396614074707,22.103658447265623
1765999998920656600,23.49265673828125,-0.7889534831047058,-2.3671584129333496,8.717446327209473,22.122438232421874
1765999998948826000,23.520826171875,-0.6865354776382446,0.039703369140625,5.30327844619751,22.150607666015624
1765999998967606000,23.53960595703125,-1.1390459537506104,0.3063192367553711,1.1551395654678345,22.169387451171872
1765999998986385700,23.5583857421875,-1.4682505130767822,-1.445241928100586,-2.0358517169952397,22.188167236328123
1765999999005165300,23.57716528320313,-2.205517530441284,-1.7791681289672852,-2.571112155914306,22.206946777343752
1765999999023945200,23.5959453125,-2.5737972259521484,-1.1545295715332031,-1.7355000972747805,22.225726806640623
1765999999042724900,23.614724853515625,-2.504340171813965,-1.2730560302734375,0.1363694667816162,22.244506347656248
1765999999061504800,23.6335048828125,-2.4085841178894043,-1.7025213241577148,0.1151145696640014,22.263286376953122
1765999999080284400,23.652284423828124,-2.2492940425872803,-1.9020099639892576,-0.2562669515609741,22.282065917968747
1765999999108454000,23.680453857421877,-2.110838890075684,-2.0350570678710938,-0.1723343729972839,22.3102353515625
1765999999127233800,23.69923388671875,-2.380454540252685,-1.9402713775634768,-0.1013984680175781,22.329015380859374
1765999999146013400,23.718013427734373,-2.6521012783050537,-1.917832851409912,-0.3141859173774719,22.347794921874996
1765999999164793000,23.73679296875,-2.858960628509521,-2.1116724014282227,-0.302478015422821,22.366574462890622
1765999999183573000,23.75557299804688,-3.170219898223877,-2.319507122039795,-0.66666179895401,22.385354492187503
1765999999202352600,23.7743525390625,-3.146591663360596,-2.554349899291992,-0.9483057260513306,22.404134033203125
1765999999221132300,23.79313232421875,-2.967158317565918,-2.6611204147338867,-0.8189666271209717,22.422913818359373
1765999999239912200,23.811912109375,-2.662369728088379,-2.454676628112793,-0.6227403879165649,22.441693603515624
1765999999268081700,23.84008154296875,-2.39119553565979,-1.8040900230407717,-0.4276871383190155,22.469863037109373
1765999999286861600,23.858861572265624,-2.216740608215332,-1.4004697799682615,-0.7125028371810913,22.488643066406247
1765999999305641200,23.87764111328125,-2.144248008728028,-0.8810853958129883,-0.9839000105857848,22.507422607421873
1765999999324420900,23.8964208984375,-2.062978029251098,-0.2423439025878906,-1.3159737586975098,22.526202392578124
1765999999343200800,23.91520068359375,-1.8500781059265137,0.2624588012695312,-1.2695496082305908,22.544982177734372
1765999999361980400,23.93398046875,-1.7843985557556152,0.1579198837280273,-1.1051207780838013,22.563761962890624
1765999999380760000,23.952760009765623,-1.7033536434173584,-0.0207796096801757,-1.1955894231796265,22.582541503906246
1765999999399540000,23.9715400390625,-1.38812255859375,0.2059822082519531,-1.2115861177444458,22.601321533203123
1765999999418319600,23.990319580078125,-1.3645176887512207,0.6583652496337891,-1.1336275339126587,22.62010107421875
1765999999446489300,24.0184892578125,-1.4265468120574951,0.5981655120849609,-0.995484471321106,22.648270751953124
1765999999465269000,24.03726904296875,-1.4158291816711426,0.274144172668457,-0.7557944059371948,22.667050537109372
1765999999484048600,24.05604858398437,-1.290872573852539,0.4992933273315429,-0.6949390172958374,22.685830078124994
1765999999502828500,24.07482861328125,-0.988333225250244,0.7737016677856445,-0.7002042531967163,22.704610107421875
1765999999521608200,24.093608154296877,-0.6042590141296387,0.9179210662841796,-0.6728989481925964,22.7233896484375
1765999999540387800,24.112387939453125,-0.6317863464355469,1.0565614700317385,-0.5562043190002441,22.742169433593748
1765999999559167700,24.131167724609377,-0.5027947425842285,0.9647655487060548,-0.5513083338737488,22.76094921875
1765999999587337200,24.15933715820313,-0.2785048484802246,0.7695260047912598,-0.2439925372600555,22.789118652343753
1765999999606117000,24.1781171875,-0.1145968437194824,0.7421197891235352,0.2409267425537109,22.807898681640623
1765999999624896800,24.196896728515625,-0.0174670219421386,0.7342414855957031,0.6391367316246033,22.82667822265625
1765999999643676400,24.215676513671877,-0.1236157417297363,0.6050982475280762,1.008467197418213,22.8454580078125
1765999999662456300,24.234456298828125,-0.0539526939392089,0.5655512809753418,1.3863025903701782,22.864237792968748
1765999999681236000,24.253236083984376,0.2221598625183105,1.6683659553527832,1.98329758644104,22.883017578125
1765999999700015600,24.272015625,2.0648458003997803,2.624530792236328,2.4386661052703857,22.901797119140625
1765999999718795500,24.29079541015625,2.3438057899475098,2.8174362182617188,0.8765143156051636,22.920576904296873
1765999999737575200,24.3095751953125,2.7806200981140137,5.216279029846191,-1.4439198970794678,22.939356689453124
1765999999756355000,24.32835498046875,4.944926261901856,6.628695487976074,-1.6012846231460571,22.958136474609372
1765999999775134700,24.347134765625,4.826578617095947,5.331307411193848,-2.052046537399292,22.976916259765623
1765999999793914400,24.365914306640622,4.147575855255127,4.778079032897949,-2.1177122592926025,22.995695800781245
1765999999812694300,24.3846943359375,3.15567684173584,3.9937820434570312,-2.3471267223358154,23.014475830078123
1765999999831474000,24.403473876953125,1.949448585510254,2.931259155273437,-1.9363465309143064,23.033255371093748
1765999999850253600,24.422253662109377,1.0838751792907717,2.2079057693481445,-1.433018445968628,23.05203515625
1765999999869033500,24.441033447265625,1.215984582901001,1.5784683227539062,-1.2501637935638428,23.070814941406248
1765999999887813000,24.45981323242188,1.230205535888672,1.1582698822021484,-0.8753073215484619,23.089594726562503
1765999999906592800,24.4785927734375,0.7242546081542969,1.109837532043457,-0.2251641005277633,23.108374267578125
1765999999925372700,24.49737255859375,0.828742504119873,1.354999542236328,0.373212993144989,23.127154052734372
1765999999944152300,24.51615234375,0.4094715118408203,1.2006893157958984,0.4090079963207245,23.145933837890624
1765999999962932200,24.53493212890625,0.4586353302001953,0.6939764022827148,0.7587587833404541,23.16471362304687
1765999999981712000,24.5537119140625,0.5237545967102051,0.6502199172973633,1.342298150062561,23.183493408203123
1766000000000491500,24.57249145507813,0.3715672492980957,1.158498764038086,1.4186842441558838,23.202272949218752
1766000000019271400,24.591271484375,0.4813838005065918,1.455974578857422,1.0282461643218994,23.221052978515623
1766000000038051000,24.610051025390625,0.2398829460144043,1.4228277206420898,0.7731301784515381,23.239832519531248
1766000000056830700,24.62883081054688,0.0661153793334961,1.6086978912353516,0.7930188775062561,23.258612304687503
1766000000085000400,24.65700048828125,-0.2396371364593505,0.9709920883178712,0.6902591586112976,23.28678198242187
1766000000103780000,24.675780029296877,-0.6953930854797363,0.7631807327270508,1.670976161956787,23.3055615234375
1766000000122560000,24.69456005859375,-0.7519280910491943,1.2087945938110352,2.6359305381774902,23.324341552734374
1766000000141339600,24.713339599609377,-0.41136634349823,1.5120458602905271,2.82647705078125,23.34312109375
1766000000160119600,24.73211962890625,-3.494555950164795,-2.0513477325439453,2.688734769821167,23.361901123046874
1766000000178899200,24.75089916992188,-2.494881629943848,-0.5175857543945312,-5.828064441680908,23.380680664062503
1766000000197678800,24.769678955078124,-0.3248312473297119,3.382391929626465,-1.567552089691162,23.399460449218747
1766000000216458800,24.788458740234372,-0.5025907754898071,-0.9208297729492188,3.830523729324341,23.418240234374995
1766000000235238400,24.80723828125,-1.1439900398254397,-1.098602294921875,4.3791046142578125,23.437019775390624
1766000000254018000,24.82601806640625,-1.0942785739898682,0.8237037658691406,3.464073181152344,23.455799560546872
1766000000272798000,24.8447978515625,-1.652867078781128,-0.4490041732788086,1.5369704961776731,23.474579345703123
1766000000291577600,24.86357763671875,-2.11152982711792,-2.0478663444519043,-0.5490805506706238,23.493359130859375
1766000000310357500,24.882357421875,-2.5952062606811523,-2.437368392944336,-1.2277679443359375,23.512138916015623
