time,seconds_elapsed,z,y,x,t
1766000007430236200,32.00223608398438,-0.4319577515125274,0.9602794051170348,2.3060145378112797,30.61089038085938
1766000007449016000,32.02101611328125,-0.3178787529468536,0.7597630620002747,2.334572553634644,30.62967041015625
1766000007477185500,32.049185546875,-0.1534034162759781,0.168904110789299,2.271042585372925,30.657839843750004
1766000007495965400,32.06796533203125,-0.0898734778165817,-0.2348775118589401,2.24416446685791,30.676619628906252
1766000007514745300,32.08674536132813,-0.1537088453769683,-0.398283839225769,2.095877170562744,30.69539965820313
1766000007533525000,32.10552490234375,-0.3478111326694488,-0.1429423540830612,1.7573052644729614,30.714179199218755
1766000007552305000,32.12430493164062,-0.6042216420173645,0.8585704565048218,0.9728021621704102,30.732959228515625
1766000007571084500,32.14308447265625,-1.3769655227661133,2.7233879566192627,-0.9676098227500916,30.75173876953125
1766000007589864400,32.161864501953126,-1.0399209260940552,2.522871494293213,-1.1730130910873413,30.770518798828128
1766000007608644000,32.18064404296875,0.0083230324089527,1.1887428760528564,-1.215162754058838,30.789298339843754
1766000007627424000,32.19942407226562,0.6318632364273071,-0.8226821422576904,-1.004414439201355,30.808078369140624
1766000007646203600,32.21820361328125,0.2955822050571441,-1.5931353569030762,-0.505032479763031,30.82685791015625
1766000007664983600,32.236983642578124,0.0142789641395211,-1.182176113128662,-0.2609919905662536,30.845637939453127
1766000007683763200,32.25576318359375,0.004657844081521,-0.5845975875854492,-0.315206229686737,30.864417480468752
1766000007702543000,32.27454321289063,0.2031888961791992,-0.2079994529485702,-0.3988946974277496,30.88319750976563
1766000007721322800,32.29332275390625,0.2373973280191421,-0.4694495797157287,-0.4543306827545166,30.901977050781255
1766000007749492500,32.32149243164063,0.0762817412614822,-0.9033163189888,-0.4630354940891266,30.93014672851563
1766000007777662200,32.349662109375,-0.1561523079872131,-0.264504462480545,-0.3364337682723999,30.95831640625
1766000007796442000,32.368442138671874,-0.2416733801364898,0.3599520623683929,-0.21319180727005,30.977096435546876
1766000007815221800,32.3872216796875,-0.2409097999334335,0.6160571575164795,-0.083535760641098,30.995875976562502
1766000007834001700,32.40600170898438,-0.229608803987503,0.5105302333831787,0.0539088174700737,31.01465600585938
1766000007852781300,32.42478125,-0.2224311381578445,0.2794706225395202,0.187840923666954,31.033435546875005
1766000007871561200,32.44356127929687,-0.2089921087026596,0.1356119811534881,0.2997818887233734,31.052215576171875
1766000007890340900,32.4623408203125,-0.1798233240842819,0.1589775532484054,0.3506363928318023,31.0709951171875
1766000007909120800,32.481120849609376,-0.1146135032176971,0.2203694730997085,0.3552178740501404,31.089775146484378
1766000007927900400,32.499900390625,-0.0626899972558021,0.2347247898578643,0.3680460155010223,31.108554687500003
1766000007946680300,32.51868041992188,-0.0239000841975212,0.1721111536026001,0.4079049527645111,31.12733471679688
1766000007965460000,32.5374599609375,0.0634535774588584,0.1340848207473755,0.4842630624771118,31.1461142578125
1766000007984239900,32.556239990234374,0.1946367919445037,-0.0061086476780474,0.5233584046363831,31.164894287109377
1766000008003019500,32.57501953125,0.3186423480510711,-0.2342666387557983,0.5687150955200195,31.183673828125002
1766000008021799400,32.59379931640625,0.3948477208614349,-0.4262309074401855,0.6096430420875549,31.20245361328125
1766000008040579000,32.6125791015625,0.4898371994495392,-0.6861538887023926,0.5652026534080505,31.221233398437505
1766000008059359000,32.63135888671875,0.6422479748725891,-0.9679152369499208,0.3735437989234924,31.240013183593753
1766000008078139000,32.65013891601563,0.8303943276405334,-1.2315033674240112,-0.0015271619195118,31.25879321289063
1766000008106308400,32.678308349609374,1.0022000074386597,-1.33290696144104,-0.8776599764823914,31.286962646484376
1766000008125088300,32.69708813476562,1.038088321685791,-1.8034255504608157,-1.548389554023743,31.305742431640624
1766000008143868000,32.71586791992188,1.181488871574402,-2.411083221435547,-2.195600748062134,31.32452221679688
1766000008162647800,32.734647705078125,1.338786482810974,-2.839146852493286,-2.7812674045562744,31.343302001953127
1766000008181427700,32.753427734375,1.3516147136688232,-2.97857666015625,-3.2710282802581787,31.362082031250004
1766000008200207400,32.77220727539063,1.3032037019729614,-2.8646504878997803,-3.196044445037842,31.38086157226563
1766000008218987300,32.7909873046875,0.6671407222747803,-2.5517349243164062,-2.205069065093994,31.3996416015625
1766000008237767000,32.80976684570312,0.1627191007137298,-0.3811796307563782,-2.895193576812744,31.418421142578126
1766000008256546800,32.828546875,0.4177551567554474,-0.0824667438864708,-2.8571672439575195,31.437201171875003
1766000008275326500,32.847326416015626,0.4313468933105469,0.1478292793035507,-2.6032001972198486,31.45598071289063
1766000008294106400,32.8661064453125,0.231899544596672,-0.744796872138977,-2.205527305603028,31.4747607421875
1766000008312886000,32.88488598632812,0.3239873945713043,-1.1436915397644043,-1.6568180322647097,31.493540283203124
1766000008331666000,32.903666015625,0.3171151876449585,-1.1458295583724976,-1.0720677375793457,31.5123203125
1766000008350445600,32.922445556640625,0.3038288652896881,-0.2813032269477844,-0.495258629322052,31.531099853515627
1766000008369225500,32.9412255859375,0.2742019295692444,0.8669698238372803,0.0737619251012802,31.549879882812505
1766000008388005000,32.96000512695313,0.1870009750127792,1.7250821590423584,0.5746710300445557,31.56865942382813
1766000008416174800,32.9881748046875,0.0578030794858932,2.137721300125122,1.068555235862732,31.596829101562506
1766000008434954800,33.00695483398437,0.0069485870189964,1.9967643022537231,1.2765547037124634,31.615609130859376
1766000008453734400,33.025734375,-0.0232892204076051,1.774256706237793,1.4451533555984497,31.634388671875
1766000008472514300,33.04451440429688,-0.1243873387575149,1.551901936531067,1.5992439985275269,31.653168701171886
1766000008491294000,33.0632939453125,-0.2836703360080719,1.382845163345337,1.7547091245651243,31.671948242187504
1766000008510073900,33.08207397460937,-0.4006509482860565,1.3968950510025024,1.9193371534347532,31.690728271484375
1766000008528853500,33.100853515625,-0.4435641765594482,1.5128066539764404,2.069457054138184,31.7095078125
1766000008547633400,33.11963330078125,-0.4479929506778717,1.6009238958358765,2.1801764965057373,31.728287597656255
1766000008566413300,33.13841333007812,-0.4508945643901825,1.5554144382476809,2.245080709457397,31.747067626953125
1766000008585193000,33.15719287109375,-0.4285979866981506,1.333975911140442,2.2794418334960938,31.76584716796875
1766000008603972900,33.175972900390626,-0.3890444934368133,0.9744820594787598,2.2948663234710693,31.78462719726563
1766000008622752500,33.19475244140625,-0.3783543705940246,0.6046034097671509,2.2933390140533447,31.803406738281254
1766000008641532400,33.21353247070312,-0.3872119188308716,0.272751122713089,2.265850067138672,31.822186767578124
1766000008660312000,33.23231201171875,-0.400345504283905,0.0644462332129478,2.197738647460937,31.84096630859375
1766000008679092000,33.251092041015625,-0.3696495592594147,-0.0132863093167543,2.0796890258789062,31.859746337890627
1766000008697871600,33.26987158203125,-0.3224602341651916,-0.0794124230742454,1.9202533960342407,31.878525878906252
1766000008716651500,33.28865161132813,-0.2833648920059204,-0.1792888194322586,1.7279837131500244,31.89730590820313
1766000008735431200,33.30743115234375,-0.2404516488313675,-0.2498437017202377,1.5004366636276243,31.916085449218755
1766000008754211000,33.32621118164062,-0.2502254843711853,-0.3025307953357696,1.2221877574920654,31.934865478515626
1766000008772990700,33.34499072265625,-0.3290270566940307,-0.4089739620685577,0.925460159778595,31.95364501953125
1766000008791770600,33.3637705078125,-0.422947496175766,-0.5090031027793884,0.6191114783287048,31.9724248046875
1766000008810550300,33.38255029296875,-0.4389826953411102,-0.5299251675605774,0.383470356464386,31.991204589843754
1766000008829330200,33.401330078125,-0.4623482823371887,0.2715294063091278,-0.1886045038700103,32.009984375
1766000008848110000,33.42011010742188,-0.6020836234092712,0.8575014472007751,-0.7344121932983398,32.02876440429688
1766000008866889700,33.4388896484375,-0.5087739825248718,0.9013310074806212,-0.8529199361801147,32.047543945312505
1766000008885669600,33.45766967773437,-0.1624136716127395,0.8223767280578613,-0.8839213252067566,32.066323974609375
1766000008904449300,33.47644921875,0.368122398853302,0.4532616734504699,-0.997847616672516,32.085103515625
1766000008923229200,33.49522924804688,0.5507709383964539,-0.5383245944976807,-0.8859066367149353,32.103883544921885
1766000008942008800,33.5140087890625,0.3268890082836151,-1.1027636528015137,-0.5282453298568726,32.1226630859375
1766000008960788700,33.53278881835938,0.1111010313034057,-1.1760674715042114,-0.1473711282014846,32.14144311523438
1766000008979568400,33.551568359375,-0.011224640533328,-0.7785471677780151,0.0349720083177089,32.16022265625
1766000008998348300,33.570348388671874,0.051083568483591,-0.3347539007663727,0.0453567095100879,32.17900268554688
1766000009017128200,33.58912817382812,0.1767689883708953,-0.1221729591488838,0.0317649692296981,32.197782470703125
1766000009035907800,33.60790795898438,0.2315941154956817,-0.1432477980852127,0.0190895237028598,32.21656225585938
1766000009054687700,33.626687744140625,0.2407570779323578,-0.2606865465641022,0.013439024798572,32.23534204101563
1766000009073467400,33.64546728515625,0.257250428199768,-0.3385718166828155,0.0053450670093297,32.25412158203125
1766000009092247300,33.66424731445313,0.261526495218277,-0.2083048969507217,0.0308486707508564,32.27290161132813
1766000009111027000,33.68302685546875,0.2699258625507355,-0.0772743970155716,0.0368046015501022,32.291681152343756
1766000009129806800,33.701806884765624,0.2763399481773376,0.0313068181276321,0.0233655776828527,32.310461181640626
1766000009148586500,33.72058642578125,0.3071886301040649,0.1524107605218887,0.0103847011923789,32.32924072265625
1766000009167366400,33.73936645507813,0.4398989975452423,0.080481432378292,-0.0560468435287475,32.34802075195313
1766000009186146300,33.758146240234375,0.69722580909729,-0.2205221801996231,-0.217773288488388,32.36680053710938
1766000009204926000,33.77692602539062,0.9938006401062012,-0.7078395485877991,-0.4473057389259338,32.385580322265625
1766000009223705900,33.79570581054688,1.189277410507202,-1.2437206506729126,-0.785877525806427,32.40436010742188
1766000009242485500,33.814485595703125,1.264566421508789,-1.5645774602890017,-1.2327251434326172,32.42313989257813
1766000009261265400,33.83326538085937,1.233259677886963,-1.775478482246399,-1.668118953704834,32.441919677734376
1766000009280045000,33.85204516601563,1.2063815593719482,-1.859625101089477,-2.0667083263397217,32.46069946289063
1766000009298825000,33.87082495117188,1.138117432594299,-1.7939571142196655,-2.416428327560425,32.479479248046886
1766000009317604900,33.88960498046875,0.9901354312896729,-1.77043879032135,-2.6803219318389893,32.49825927734375
1766000009336384500,33.90838452148437,0.7538834810256958,-1.785252332687378,-2.833648920059204,32.517038818359374
1766000009355164400,33.92716430664063,0.2485456019639969,-2.271347999572754,-1.3799434900283811,32.53581860351563
1766000009373944000,33.945944091796875,-0.7485384345054626,0.3868301212787628,-2.0014984607696533,32.55459838867188
1766000009392724000,33.96472387695312,-0.7616720199584961,0.9271399974822998,-1.9775220155715945,32.573378173828125
1766000009411503600,33.98350366210938,-0.3198640644550323,1.5131120681762695,-2.0042474269866943,32.59215795898438
1766000009430283500,34.002283447265626,-0.0943022519350051,1.9523237943649288,-1.8936808109283447,32.61093774414063
1766000009449063200,34.021063232421874,-0.428139865398407,0.8306233882904053,-1.8681771755218504,32.629717529296876
