time,seconds_elapsed,z,y,x,t
1765999983906302000,8.478302001953125,-1.8902626037597656,0.425084114074707,0.7064975500106812,7.10808349609375
1765999983934471400,8.506471435546874,-2.6261770725250244,-1.656355857849121,1.354813814163208,7.136252929687499
1765999983962640600,8.534640625,-1.234055995941162,-2.991993904113769,-1.1479508876800537,7.1644221191406245
1765999983981420300,8.553420166015625,-0.7942600250244141,-3.6389780044555664,-2.7361927032470703,7.18320166015625
1765999984000200000,8.572199951171875,0.3411474227905273,-3.337052822113037,-3.88910722732544,7.2019814453125
1765999984018979600,8.5909794921875,0.542121410369873,-2.0752992630004883,-2.660783290863037,7.220760986328125
1765999984037759200,8.60975927734375,0.1409108638763427,-1.1573200225830078,-0.3866469860076904,7.239540771484375
1765999984056539000,8.628538818359376,-0.9987149238586426,-0.1781511306762695,1.770534873008728,7.2583203125
1765999984075318500,8.647318603515625,-1.2703711986541748,1.0230827331542969,4.6713409423828125,7.27710009765625
1765999984094098200,8.66609814453125,-0.904898166656494,2.138924598693848,6.934425354003906,7.295879638671876
1765999984112877800,8.6848779296875,-0.9623748064041138,2.629149436950684,7.748283863067627,7.314659423828125
1765999984141047300,8.71304736328125,-2.0813920497894287,2.6618947982788086,5.598742485046387,7.342828857421875
1765999984159827000,8.731826904296875,-2.7987148761749268,2.449077606201172,4.39201545715332,7.3616083984375
1765999984178606300,8.7506064453125,-3.682334899902344,2.8074302673339844,4.123976707458496,7.380387939453124
1765999984197386000,8.769385986328125,-3.662511825561523,3.485589027404785,3.611424207687378,7.3991674804687495
1765999984216165600,8.78816552734375,0.2567555904388428,2.889132499694824,4.080888271331787,7.417947021484375
1765999984234945300,8.8069453125,-9.139753341674805,-0.3970394134521484,0.5881471633911133,7.436726806640625
1765999984253725000,8.825724853515625,-0.82987380027771,3.986189842224121,-11.11115837097168,7.45550634765625
1765999984272504600,8.844504638671875,1.5100572109222412,2.550358772277832,2.0631208419799805,7.4742861328125
1765999984291284200,8.8632841796875,0.7253265380859375,-1.3073797225952148,-1.683509111404419,7.493065673828125
1765999984310063900,8.88206396484375,1.5025827884674072,1.2667512893676758,-3.626165866851807,7.511845458984375
1765999984328843500,8.900843505859376,0.1106464862823486,-1.123504638671875,-1.2308614253997805,7.530625000000001
1765999984347623200,8.919623046875,-1.9237116575241089,-2.5487260818481445,-2.0952751636505127,7.549404541015624
1765999984366402800,8.93840283203125,-2.6294405460357666,-1.542445182800293,-1.2755634784698486,7.568184326171874
1765999984385182500,8.957182373046875,-3.163083553314209,-1.2612838745117188,-1.411290407180786,7.5869638671874995
1765999984403961900,8.9759619140625,-3.249526262283325,-2.1015000343322754,-2.6546077728271484,7.605743408203125
1765999984422741500,8.994741455078126,-3.5352425575256348,-2.9146080017089844,-2.3128252029418945,7.6245229492187505
1765999984441521200,9.013521240234375,-3.671162605285645,-3.0841317176818848,-1.73915696144104,7.643302734375
1765999984460300800,9.03230078125,-3.5406322479248047,-2.7881293296813965,-1.2332059144973757,7.662082275390624
1765999984479080400,9.05108056640625,-3.195319175720215,-2.427879810333252,-1.068573236465454,7.680862060546875
1765999984497860000,9.069860107421874,-3.006375551223755,-2.4351038932800293,-0.8869328498840332,7.699641601562499
1765999984516639700,9.0886396484375,-2.609898328781128,-2.515565872192383,-0.7125779390335083,7.718421142578125
1765999984535419400,9.10741943359375,-2.309805393218994,-2.428616523742676,-0.2343738079071045,7.737200927734374
1765999984554199000,9.126198974609377,-2.098226547241211,-2.200350761413574,0.0880682468414306,7.755980468750002
1765999984572978700,9.144978759765625,-1.9557807445526123,-2.2496395111083984,0.6077061295509338,7.7747602539062495
1765999984591758300,9.16375830078125,-1.43497896194458,-2.582146644592285,1.288481593132019,7.793539794921875
1765999984610538000,9.1825380859375,-1.4603042602539062,-2.513346672058105,1.914468050003052,7.812319580078125
1765999984629317600,9.201317626953124,-2.2666611671447754,-0.2491531372070312,2.2119057178497314,7.831099121093748
1765999984648097000,9.220096923828123,0.4947371482849121,1.2626409530639648,0.0259400904178619,7.849878417968748
1765999984666876700,9.238876708984376,3.1250948905944824,2.173999786376953,-4.925431728363037,7.868658203125001
1765999984685656300,9.25765625,1.8408410549163816,11.108025550842283,-2.974268913269043,7.887437744140625
1765999984704436000,9.27643603515625,4.882098197937012,9.806978225708008,1.0316914319992063,7.906217529296875
1765999984723215600,9.295215576171875,4.3108625411987305,4.554688453674316,-0.3043922483921051,7.9249970703125
1765999984741995300,9.313995361328123,3.3035733699798584,2.8191070556640625,-1.057617425918579,7.943776855468748
1765999984760775000,9.33277490234375,0.1185314655303955,2.2963075637817383,0.2080961167812347,7.962556396484375
1765999984779554600,9.351554443359374,-1.74629545211792,0.8587722778320312,1.1035480499267578,7.981335937499999
1765999984798334200,9.370334228515626,-1.1477880477905271,-1.7527952194213867,1.1270194053649902,8.00011572265625
1765999984817113900,9.38911376953125,0.1933104991912841,-2.9356112480163574,0.1559076309204101,8.018895263671874
1765999984845283300,9.417283447265625,0.8814132213592529,-0.5966882705688477,1.4269391298294067,8.04706494140625
1765999984864063000,9.43606298828125,0.6055045127868652,0.7825918197631836,2.505295991897583,8.065844482421875
1765999984882842600,9.454842529296876,0.468325138092041,0.8706073760986328,2.162409782409668,8.0846240234375
1765999984901622300,9.473622314453126,0.3774912357330322,0.4769811630249023,0.8790708780288696,8.10340380859375
1765999984920401700,9.492401611328123,0.1407673358917236,0.2739496231079101,-0.0248836576938629,8.122183105468748
1765999984939181300,9.511181396484377,-0.6375439167022705,0.1193599700927734,-0.1040279865264892,8.140962890625001
1765999984957961000,9.5299609375,-1.1789472103118896,-0.0196437835693359,-0.3531780242919922,8.159742431640625
1765999984976740600,9.54874072265625,-1.149855375289917,-0.0839414596557617,-0.882236659526825,8.178522216796875
1765999984995520300,9.567520263671875,-0.8423318862915039,0.0595273971557617,-1.0171674489974976,8.1973017578125
1765999985014300000,9.5862998046875,-0.5154380798339844,0.1872186660766601,-0.9131875038146972,8.216081298828124
1765999985033079600,9.60507958984375,0.0969583988189697,-0.044661521911621,-0.3261237740516662,8.234861083984375
1765999985051859200,9.623859130859374,0.7672852277755737,-0.1023101806640625,0.3534852862358093,8.253640625
1765999985070638800,9.642638916015626,0.8676419258117676,-0.0217857360839843,-0.0057398974895477,8.27242041015625
1765999985089418500,9.66141845703125,0.7308754920959473,-0.0281076431274414,-0.4493270516395569,8.291199951171874
1765999985108198100,9.6801982421875,0.8148927688598633,-0.0073671340942382,-0.1146627068519592,8.309979736328124
1765999985126977800,9.698977783203125,0.5072559118270874,-0.1141281127929687,0.7513313889503479,8.32875927734375
1765999985155147000,9.72714697265625,0.4934594631195068,-0.2813224792480469,1.2716100215911863,8.356928466796875
1765999985173926700,9.7459267578125,0.3983674049377441,-0.1329975128173828,0.9290934801101683,8.375708251953125
1765999985192706300,9.764706298828123,0.5352421402931213,-0.0007228851318359,0.5164031982421875,8.394487792968748
1765999985211486000,9.78348583984375,0.8013166189193726,-0.0187149047851562,0.1455720961093902,8.413267333984376
1765999985239655400,9.811655517578124,0.7716509103775024,-0.0407485961914062,0.0999592989683151,8.44143701171875
1765999985258435000,9.83043505859375,1.029043197631836,-0.0537147521972656,-0.0556796491146087,8.460216552734375
1765999985277214700,9.849214599609375,1.3636764287948608,-0.0680179595947265,-0.045337937772274,8.47899609375
1765999985295994400,9.867994384765623,1.7601218223571775,-0.1043205261230468,-0.3352735936641693,8.497775878906248
1765999985314774000,9.88677392578125,2.1989669799804688,-0.125925064086914,-0.796558141708374,8.516555419921875
1765999985333553700,9.9055537109375,2.4512596130371094,-0.0480890274047851,-1.217815637588501,8.535335205078125
1765999985352333300,9.924333251953126,2.9157843589782715,-0.074406623840332,-1.3349710702896118,8.55411474609375
1765999985371112700,9.94311279296875,3.665359497070313,-0.2708635330200195,-1.431654691696167,8.572894287109374
1765999985389892400,9.961892333984377,5.087173461914063,-0.3555803298950195,-2.262239456176758,8.591673828125002
1765999985408672000,9.980672119140625,8.41855525970459,-0.2780656814575195,-4.185293674468994,8.61045361328125
1765999985427451600,9.99945166015625,12.374224662780762,0.2644472122192383,-7.906399726867676,8.629233154296875
1765999985446231300,10.018231201171876,10.066656112670898,0.2670850753784179,-9.53990650177002,8.6480126953125
1765999985474400800,10.04640087890625,-5.15453577041626,1.671828269958496,-6.502674102783203,8.676182373046874
1765999985493180400,10.065180419921877,-10.104226112365724,1.8370180130004885,-3.627420425415039,8.694961914062501
1765999985511960000,10.0839599609375,-9.787640571594238,2.050164222717285,1.2333276271820068,8.713741455078125
1765999985530739700,10.10273974609375,-4.731520175933838,2.365237236022949,7.039411544799805,8.732521240234375
1765999985549519400,10.121519287109376,-2.8206708431243896,1.017756462097168,8.518153190612793,8.75130078125
1765999985568299000,10.140299072265623,-2.229041576385498,-0.4041194915771484,3.538771629333496,8.770080566406248
1765999985587078700,10.15907861328125,-0.8784658908843994,0.5568828582763672,1.713162541389465,8.788860107421876
1765999985605858300,10.1778583984375,1.2634896039962769,2.46096420288086,3.100686550140381,8.807639892578125
1765999985624638000,10.196637939453124,-0.5383404493331909,2.899179458618164,4.415024280548096,8.826419433593749
1765999985652807400,10.224807373046875,-4.777866363525391,-1.3503437042236328,1.5192832946777344,8.8545888671875
1765999985671587000,10.243587158203123,-6.54461669921875,0.0499849319458007,-5.113215446472168,8.873368652343748
1765999985690366700,10.26236669921875,-1.853254795074463,2.098788261413574,-0.2087421417236328,8.892148193359375
1765999985709146400,10.281146484375,-1.0776349306106567,-0.0470428466796875,5.80476188659668,8.910927978515625
1765999985727926000,10.299926025390626,0.7520525455474854,-1.127946853637695,5.963675498962402,8.92970751953125
1765999985746705400,10.318705322265624,2.854729175567627,-0.3284902572631836,6.464990615844727,8.948486816406248
1765999985765485000,10.337485107421877,-0.2830898761749267,0.949270248413086,2.13620662689209,8.967266601562502
1765999985784264700,10.3562646484375,-0.8151350021362305,-0.6932039260864258,-4.010414123535156,8.986046142578125
1765999985803044400,10.37504443359375,-0.7930406332015991,-2.7872705459594727,-6.933497905731201,9.004825927734375
1765999985821824000,10.393823974609376,-0.7509074211120605,-3.620829582214356,-6.120599269866943,9.02360546875
1765999985840603600,10.412603759765624,-1.294764518737793,-2.3636531829833984,-0.9610195159912108,9.042385253906248
1765999985859383300,10.43138330078125,-2.115813732147217,-1.297407150268555,2.809391021728516,9.061164794921876
1765999985878163000,10.450162841796876,-3.066569805145264,-1.8191804885864256,3.955118417739868,9.079944335937501
1765999985896942600,10.468942626953124,-3.401031732559204,-2.4284539222717285,2.223843812942505,9.098724121093749
1765999985915722200,10.48772216796875,-3.0556297302246094,-2.4435348510742188,0.6968732476234436,9.117503662109375
1765999985934502000,10.506501953125,-3.0557937622070312,-1.8327717781066892,-1.40218186378479,9.136283447265624
1765999985962671400,10.53467138671875,-2.4810791015625,-1.1092147827148438,-2.8912949562072754,9.164452880859375
