time,seconds_elapsed,z,y,x,t
1765999986986161700,11.55816162109375,0.190854787826538,0.0167245864868164,-0.0212748646736145,10.187943115234376
1765999987004941300,11.57694140625,0.2659978866577148,-0.1149749755859375,-0.3192993104457855,10.206722900390625
1765999987023721000,11.595720947265624,0.392167329788208,0.0198335647583007,-0.019284039735794,10.225502441406249
1765999987051890400,11.623890380859375,0.3173239231109619,0.2765464782714844,0.8415735960006714,10.253671875
1765999987070670000,11.642670166015623,0.4080269336700439,0.190042495727539,0.7244250774383545,10.272451660156248
1765999987089449700,11.66144970703125,0.731360912322998,-0.131753921508789,-0.2495019137859344,10.291231201171875
1765999987108229400,11.6802294921875,0.8703058958053589,-0.0910968780517578,-0.904826283454895,10.310010986328125
1765999987127009000,11.699009033203126,0.9928853511810304,0.047835350036621,-0.7226409912109375,10.32879052734375
1765999987155178500,11.727178466796875,1.740589261054993,0.0571489334106445,-0.1843137741088867,10.3569599609375
1765999987173958100,11.745958251953123,1.7824214696884155,0.0196599960327148,0.2883954346179962,10.375739746093748
1765999987192737800,11.76473779296875,1.703546404838562,0.0288257598876953,0.296725332736969,10.394519287109375
1765999987211517400,11.783517333984374,1.8797813653945925,0.1536111831665039,-0.3729761838912964,10.413298828124999
1765999987239687000,11.81168701171875,2.910019874572754,0.2857389450073242,-1.358593463897705,10.441468505859374
1765999987258466600,11.830466552734377,3.790786266326904,0.4391384124755859,-1.8140963315963743,10.460248046875002
1765999987277246200,11.84924609375,4.593832969665527,0.4810428619384765,-2.759479522705078,10.479027587890625
1765999987296025900,11.86802587890625,4.7593607902526855,0.8998003005981445,-3.927110433578491,10.497807373046875
1765999987314805500,11.886805419921876,3.794362545013428,1.4997844696044922,-4.362205028533936,10.5165869140625
1765999987333585200,11.905585205078124,2.4794840812683105,2.2771482467651367,-4.193216323852539,10.535366699218748
1765999987352364800,11.92436474609375,1.3919565677642822,2.8893699645996094,-3.3479671478271484,10.554146240234374
1765999987371144400,11.94314453125,1.1637380123138428,3.0105228424072266,-2.022175073623657,10.572926025390625
1765999987389924000,11.961924072265624,-0.1690607070922851,1.8953361511230469,0.1096212863922119,10.59170556640625
1765999987408703700,11.980703857421876,-2.719890594482422,1.222121238708496,2.391761541366577,10.6104853515625
1765999987427483400,11.9994833984375,-4.31308650970459,0.7956027984619141,3.5535616874694824,10.629264892578124
1765999987446263000,12.018262939453123,-4.386069297790527,-0.0477914810180664,3.840865850448608,10.648044433593748
1765999987465042700,12.037042724609377,-3.5453028678894043,-0.0585689544677734,4.42706298828125,10.666824218750001
1765999987483822300,12.055822265625,-2.047163963317871,0.2046718597412109,4.320474624633789,10.685603759765625
1765999987502602000,12.07460205078125,-1.2165374755859375,-0.053079605102539,3.5319201946258545,10.704383544921875
1765999987521381600,12.093381591796875,-0.320249080657959,-0.2224254608154297,2.494983434677124,10.7231630859375
1765999987540161300,12.112161376953123,0.114682912826538,-0.3588008880615234,2.317662000656128,10.741942871093748
1765999987558941000,12.13094091796875,-1.9574412107467647,-0.5324544906616211,3.185187339782715,10.760722412109375
1765999987577720600,12.149720458984374,-9.17548942565918,-4.519655227661133,3.492006540298462,10.779501953125
1765999987596500200,12.168500244140626,-3.899153470993042,-0.5279760360717773,-3.900632619857788,10.79828173828125
1765999987615279900,12.18727978515625,2.066131591796875,4.270012855529785,0.5266000032424927,10.817061279296874
1765999987634059500,12.2060595703125,3.922319889068604,-0.6074972152709961,2.1666102409362797,10.835841064453124
1765999987652839200,12.224839111328125,4.373777866363525,-0.2862110137939453,-0.7536735534667969,10.85462060546875
1765999987671618800,12.243618896484374,3.1642508506774902,1.4805183410644531,-0.300045907497406,10.873400390625
1765999987690398500,12.2623984375,-0.3467626571655273,-0.6042079925537109,-3.228922843933105,10.892179931640625
1765999987709178000,12.28117822265625,-0.4325557947158813,-2.232499122619629,-4.268669128417969,10.910959716796874
1765999987727957800,12.299957763671877,-1.1445921659469604,-2.8864097595214844,-1.5558345317840576,10.929739257812502
1765999987746737400,12.3187373046875,-2.475861072540283,-2.55294132232666,0.6544457674026489,10.948518798828125
1765999987765517000,12.33751708984375,-3.320423126220703,-2.2813034057617188,1.949556589126587,10.967298583984375
1765999987784296700,12.356296630859376,-3.8800454139709473,-2.549280166625977,1.7800956964492798,10.986078125
1765999987803076400,12.375076416015624,-3.853694438934326,-2.864285945892334,0.8347557187080383,11.004857910156248
1765999987821856000,12.39385595703125,-3.257623672485352,-2.8540802001953125,-0.2074167430400848,11.023637451171874
1765999987840635600,12.4126357421875,-2.9477455615997314,-2.715218067169189,-0.8134729266166687,11.042417236328125
1765999987859415300,12.431415283203124,-3.008929491043091,-2.5428333282470703,-1.413264513015747,11.06119677734375
1765999987878195000,12.45019482421875,-3.0429234504699707,-2.4750561714172363,-1.5988948345184326,11.079976318359375
1765999987896974600,12.468974609375,-2.90298843383789,-2.412900924682617,-1.3490554094314575,11.098756103515624
1765999987915754200,12.487754150390623,-2.7099528312683105,-2.135542392730713,-1.0374760627746582,11.117535644531248
1765999987934534000,12.506533935546877,-2.6762290000915527,-1.651750087738037,-1.024638533592224,11.136315429687501
1765999987953313500,12.5253134765625,-2.4143989086151123,-1.1010990142822266,-1.320702075958252,11.155094970703125
1765999987972093200,12.54409326171875,-2.2411088943481445,-0.7784843444824219,-1.4474992752075195,11.173874755859375
1765999987990872800,12.562872802734375,-1.8772425651550293,-0.2801923751831054,-1.7396116256713867,11.192654296875
1765999988009652700,12.58165283203125,-1.59246826171875,0.2536554336547851,-1.8203139305114744,11.211434326171874
1765999988028432100,12.60043212890625,-1.2233490943908691,0.3762674331665039,-1.445789813995361,11.230213623046875
1765999988047211800,12.619211669921874,-1.1472582817077637,0.2218494415283203,-0.7371701598167419,11.2489931640625
1765999988065991700,12.63799169921875,-1.2339425086975098,0.0020780563354492,0.1401883065700531,11.267773193359375
1765999988084771300,12.656771240234375,-1.5621719360351562,-0.1785669326782226,0.9285646677017212,11.286552734375
1765999988103551000,12.675551025390623,-1.187077522277832,-0.5236101150512695,1.474663496017456,11.305332519531248
1765999988122330600,12.69433056640625,-2.042015552520752,0.1961336135864257,2.065046548843384,11.324112060546875
1765999988141110300,12.7131103515625,-0.3901286125183105,2.2888946533203125,3.2424561977386475,11.342891845703125
1765999988159890000,12.731889892578126,1.1512174606323242,2.231386184692383,2.384528398513794,11.36167138671875
1765999988178669600,12.750669677734376,1.4083092212677002,3.704976081848145,-2.773778200149536,11.380451171875
1765999988197449200,12.76944921875,1.6495580673217771,2.9681811332702637,-4.365160942077637,11.399230712890624
1765999988216228900,12.788228759765625,3.042579174041748,4.762214660644531,-3.0553507804870605,11.41801025390625
1765999988235008500,12.807008544921874,2.50942325592041,1.3460025787353516,-3.179186582565308,11.4367900390625
1765999988253788200,12.8257880859375,1.1673450469970703,0.4086799621582031,-2.208905935287476,11.455569580078125
1765999988272567800,12.84456787109375,-0.1151397228240966,0.8241062164306641,-0.7723791599273682,11.474349365234374
1765999988291347500,12.863347412109375,-0.3888895511627197,1.1404800415039062,-0.1048187911510467,11.49312890625
1765999988310127000,12.882127197265625,-0.1317982673645019,0.6196126937866211,-0.256572961807251,11.51190869140625
1765999988328906800,12.90090673828125,0.3388330936431885,-0.2904043197631836,-1.1202630996704102,11.530688232421875
1765999988357076200,12.929076171875,-0.001657485961914,-1.0092182159423828,-0.7133539915084839,11.558857666015625
1765999988375855900,12.94785595703125,-0.1836521625518798,-0.6016950607299805,0.7709141969680786,11.577637451171874
1765999988394635500,12.966635498046877,-0.2310643196105957,-0.0208082199096679,2.0221564769744877,11.596416992187502
1765999988413415200,12.985415283203125,-0.3314423561096191,0.2670421600341797,2.594348907470703,11.61519677734375
1765999988432194800,13.00419482421875,-0.3045527935028076,0.3315925598144531,1.8853741884231567,11.633976318359375
1765999988450974500,13.022974365234376,0.1000792980194091,0.252786636352539,0.9059784412384032,11.652755859375
1765999988469754000,13.041754150390624,0.3786647319793701,0.0818891525268554,-0.0723795890808105,11.671535644531248
1765999988497923600,13.069923583984377,0.8202316761016846,-0.0885171890258789,0.0743446052074432,11.699705078125001
1765999988516703200,13.088703125,0.8276803493499756,0.1176395416259765,0.566739022731781,11.718484619140625
1765999988535483000,13.10748291015625,0.4460732936859131,0.189157485961914,0.8400087356567383,11.737264404296875
1765999988554262500,13.126262451171876,0.0226287841796875,-0.009739875793457,0.4969292879104614,11.7560439453125
1765999988573042200,13.145042236328123,-0.0559103488922119,-0.1736068725585937,0.02236919850111,11.774823730468748
1765999988591821800,13.16382177734375,0.1871416568756103,-0.1561365127563476,-0.138554573059082,11.793603271484375
1765999988610601500,13.1826015625,0.4788761138916015,0.0603189468383789,-0.2482652962207794,11.812383056640625
1765999988629381400,13.20138134765625,0.9125874042510986,0.214482307434082,-0.5211849808692932,11.831162841796875
1765999988648160800,13.220160888671876,1.3942811489105225,0.2572402954101562,-0.9969473481178284,11.8499423828125
1765999988666940400,13.2389404296875,1.793639063835144,0.3616714477539062,-1.7518316507339478,11.868721923828124
1765999988685720300,13.25772021484375,2.5031700134277344,0.4844980239868164,-2.1242034435272217,11.887501708984376
1765999988704500000,13.2765,3.196150779724121,0.4886026382446289,-1.994702935218811,11.906281494140625
1765999988723279600,13.295279541015624,3.3361928462982178,0.4022388458251953,-1.889878273010254,11.925061035156249
1765999988751449000,13.323448974609375,3.24202823638916,0.7276544570922852,-2.6972289085388184,11.95323046875
1765999988770228700,13.342228759765623,3.1392412185668945,1.19134521484375,-3.2267231941223145,11.972010253906248
1765999988789008400,13.36100830078125,2.579747200012207,2.1508264541625977,-3.372196912765503,11.990789794921875
1765999988807788000,13.3797880859375,1.7252404689788818,3.320018768310547,-3.247775793075561,12.009569580078125
1765999988835957500,13.40795751953125,-0.4083256721496582,3.258807182312012,-1.96941876411438,12.037739013671874
1765999988854737200,13.426737060546875,-1.4263417720794678,2.132500648498535,-0.4915964007377624,12.0565185546875
1765999988873516800,13.445516845703125,-1.883037567138672,0.8277616500854492,1.3743040561676023,12.07529833984375
1765999988892296400,13.46429638671875,-1.5304441452026367,-0.1670246124267578,3.2845730781555176,12.094077880859375
1765999988911076000,13.483076171875,-1.3988747596740725,-0.8026027679443359,4.882282257080078,12.112857666015625
1765999988929855700,13.501855712890626,-1.424807071685791,-1.1258115768432615,5.420831680297852,12.13163720703125
1765999988948635400,13.520635498046875,-1.7453269958496094,-0.910059928894043,4.155664443969727,12.1504169921875
1765999988967415000,13.5394150390625,-1.1679019927978516,-0.595367431640625,2.105184316635132,12.169196533203126
1765999988995584800,13.567584716796874,1.1598336696624756,-0.2326431274414062,0.9055215716362,12.1973662109375
1765999989014364400,13.586364501953126,0.5264694690704346,-0.131662368774414,0.5952404737472534,12.21614599609375
1765999989033144000,13.60514404296875,0.4582884311676025,-0.074808120727539,0.4517590999603271,12.234925537109374
