time,seconds_elapsed,z,y,x,t
1766000007521787600,32.09378759765625,-2.8481578826904297,-1.737504959106445,1.5275427103042605,30.723569091796875
1766000007540567300,32.1125673828125,-3.769741535186768,-2.5497350692749023,1.6556752920150757,30.742348876953123
1766000007559347200,32.13134716796875,-6.707766056060791,0.9455118179321288,4.331470489501953,30.76112866210937
1766000007578127000,32.150127197265626,3.1329073905944824,5.804474830627441,5.52711820602417,30.77990869140625
1766000007596906800,32.16890673828125,7.505342960357666,4.195278167724609,-1.4888746738433838,30.798688232421874
1766000007615686700,32.18768676757813,7.738928318023682,4.195278167724609,-9.520249366760254,30.81746826171875
1766000007634466300,32.20646630859375,5.746109485626221,4.195278167724609,-9.830220222473145,30.83624780273437
1766000007662636000,32.23463598632812,-0.8019559383392334,0.0115880966186523,-3.509322166442871,30.864417480468745
1766000007681415700,32.25341577148438,-2.1214585304260254,-0.2141084671020507,2.104721069335937,30.883197265625
1766000007700195600,32.272195556640625,-0.8714308738708496,-1.363774299621582,3.913516998291016,30.901977050781248
1766000007718975500,32.2909755859375,0.5638488531112671,-2.4335861206054688,3.5448124408721924,30.920757080078126
1766000007737755100,32.30975512695313,1.1432033777236938,-2.420085906982422,1.6993248462677002,30.93953662109375
1766000007765924900,32.3379248046875,1.3082733154296875,-0.5688486099243164,3.147296905517578,30.967706298828126
1766000007784704800,32.356704833984374,1.6385252475738523,0.5129823684692383,2.982490062713623,30.986486328124997
1766000007803484400,32.375484375,2.1842544078826904,1.0072526931762695,1.273538589477539,31.005265869140622
1766000007822264000,32.39426416015625,2.6840763092041016,0.7464714050292969,-0.7835826277732849,31.02404565429687
1766000007841044000,32.4130439453125,3.005707263946533,0.8717756271362305,-1.7615348100662231,31.042825439453125
1766000007859823900,32.43182397460937,2.7348525524139404,1.1545534133911133,-1.5466521978378296,31.061605468749995
1766000007878603500,32.450603515625,1.577440619468689,0.6553401947021484,-0.4297178387641907,31.08038500976562
1766000007897383400,32.469383544921875,0.3175826072692871,0.0357685089111328,-0.1581654250621795,31.0991650390625
1766000007916163000,32.4881630859375,0.2411830425262451,-0.1452836990356445,-0.8619567155838013,31.117944580078124
1766000007934943000,32.50694287109375,0.6856751441955566,0.0663290023803711,-1.593458890914917,31.13672436523437
1766000007953722600,32.52572265625,1.4674062728881836,1.0636396408081057,-2.554593086242676,31.15550415039062
1766000007972502500,32.54450244140625,1.2766588926315308,1.966608047485352,-3.159722089767456,31.174283935546875
1766000007991282200,32.5632822265625,1.4029934406280518,2.8825807571411133,-3.830152988433838,31.193063720703122
1766000008010062000,32.58206201171875,1.9328851699829104,2.6689453125,-3.362712383270264,31.21184350585937
1766000008028841700,32.600841796875,1.177064061164856,2.0373783111572266,-2.156724691390991,31.230623291015625
1766000008047621600,32.61962158203125,-0.10072922706604,1.6311960220336914,-0.7668956518173218,31.249403076171873
1766000008066401500,32.63840161132813,-1.1861038208007812,1.1690616607666016,0.3521807491779327,31.26818310546875
1766000008094571000,32.666571044921874,-1.208216905593872,1.5197343826293943,1.704562425613403,31.296352539062497
1766000008122740700,32.69474072265625,-0.1961870193481445,1.9825496673583984,0.497925341129303,31.324522216796872
1766000008141520600,32.713520751953126,-0.4958491325378418,1.1404800415039062,-0.1714369505643844,31.34330224609375
1766000008160300300,32.73230029296875,-0.6039308309555054,0.4305362701416015,0.2796853482723236,31.362081787109375
1766000008179080200,32.751080078125,-1.057321071624756,0.0699653625488281,1.4912521839141846,31.380861572265623
1766000008197859800,32.76985986328125,-0.6536877155303955,-0.5348596572875977,2.798051595687866,31.39964135742187
1766000008216639700,32.7886396484375,-10.053951263427734,-4.626096725463867,2.530477523803711,31.418421142578126
1766000008235419400,32.80741943359375,-1.5386937856674194,-1.236760139465332,-1.519179105758667,31.437200927734374
1766000008254199300,32.82619921875,-1.102952003479004,1.671833038330078,3.713046312332153,31.45598071289062
1766000008272979000,32.84497900390625,3.0752203464508057,-0.9268875122070312,4.214441299438477,31.474760498046876
1766000008291758800,32.8637587890625,2.1153759956359863,0.1115589141845703,-0.7233948707580566,31.493540283203124
1766000008310538500,32.88253857421875,1.0805083513259888,1.3391056060791016,-1.585644245147705,31.512320068359372
1766000008329318400,32.901318359375,-0.3883208036422729,-0.6923894882202148,-0.351298451423645,31.53109985351562
1766000008357488000,32.92948803710937,-1.47786545753479,-1.3670110702514648,0.4320410490036011,31.559269531249996
1766000008376267800,32.94826782226563,-2.211170196533203,-1.5065622329711914,1.678621530532837,31.57804931640625
1766000008404437500,32.9764375,-3.1356546878814697,-2.2638168334960938,0.4470582008361816,31.606218994140626
1766000008423217400,32.99521752929687,-3.3916594982147217,-3.010169506072998,0.044931411743164,31.624999023437496
1766000008441997000,33.0139970703125,-3.5935354232788086,-3.397925853729248,-0.4797496795654297,31.64377856445312
1766000008460777000,33.03277685546875,-3.615556240081787,-3.373124122619629,-0.7344160676002502,31.66255834960937
1766000008479556600,33.051556640625,-3.344934701919556,-3.23760986328125,-0.6768827438354492,31.681338134765625
1766000008498336500,33.07033642578125,-3.054257869720459,-3.237181663513184,-1.040019989013672,31.700117919921873
1766000008517116200,33.0891162109375,-3.2297680377960205,-3.0390453338623047,-1.3800573348999023,31.71889770507812
1766000008535896000,33.10789599609375,-3.289994239807129,-2.687663555145264,-1.517594575881958,31.737677490234375
1766000008554675700,33.12667578125,-3.1880745887756348,-2.1157631874084477,-1.606972575187683,31.756457275390623
1766000008573455600,33.14545556640625,-2.781987428665161,-1.406721115112305,-1.892714262008667,31.77523706054687
1766000008592235300,33.1642353515625,-2.543296337127685,-0.987980842590332,-2.2827579975128174,31.794016845703126
1766000008611015200,33.18301513671875,-2.2262470722198486,-0.7217597961425781,-2.343228340148926,31.812796630859374
1766000008629795000,33.20179516601563,-1.915178656578064,-0.4408807754516601,-2.157388925552368,31.83157666015625
1766000008648574700,33.22057470703125,-1.937077522277832,0.1128797531127929,-1.7362658977508545,31.85035620117187
1766000008667354600,33.239354736328124,-1.9714155197143557,0.6407241821289062,-1.6110304594039917,31.869136230468747
1766000008686134300,33.25813427734375,-1.8564372062683103,0.7973909378051758,-1.6241055727005005,31.887915771484373
1766000008704914200,33.2769140625,-1.681493043899536,0.8423404693603516,-1.406352400779724,31.90669555664062
1766000008723693800,33.29569384765625,-1.3922812938690186,0.8717422485351562,-1.1736712455749512,31.925475341796876
1766000008751863600,33.32386352539063,-1.1194870471954346,0.7155256271362305,-0.212442398071289,31.95364501953125
1766000008770643500,33.3426435546875,-0.6484465599060059,0.2024517059326172,0.2486137598752975,31.97242504882812
1766000008789423000,33.361423095703124,-0.7366881370544434,-0.1192445755004882,0.5442452430725098,31.991204589843747
1766000008808203000,33.380203125,-0.8411722183227539,-0.2194776535034179,0.5651676058769226,32.009984619140624
1766000008826982700,33.39898266601563,-1.6097526550292969,1.4440317153930664,1.4036917686462402,32.02876416015625
1766000008845762600,33.417762451171875,0.6199727058410645,3.3382701873779297,3.2375590801239014,32.0475439453125
1766000008864542200,33.43654223632812,2.6147589683532715,3.2048377990722656,2.760750770568848,32.066323730468746
1766000008883322000,33.45532202148438,3.441962718963623,4.182784080505371,-0.0669754743576049,32.085103515625
1766000008902101800,33.474101806640626,4.896625995635986,6.754060745239258,-1.7950127124786377,32.10388330078125
1766000008920881700,33.49288159179687,6.461363792419434,6.180536270141602,-1.8980275392532349,32.122663085937496
1766000008939661600,33.51166162109375,5.994884490966797,4.538939476013184,-3.858796358108521,32.141443115234374
1766000008958441200,33.530441162109376,4.211386203765869,3.3480148315429688,-3.375103712081909,32.16022265625
1766000008977221000,33.54922119140625,1.2426280975341797,2.4005794525146484,-0.967516839504242,32.17900268554687
1766000008996000800,33.56800073242187,0.3157868385314941,1.024333953857422,0.1652695536613464,32.197782226562495
1766000009014780700,33.58678076171875,0.3314933776855469,-0.3640985488891601,0.362503170967102,32.21656225585937
1766000009042950100,33.6149501953125,0.3955330848693847,-1.0141925811767578,-0.0573501884937286,32.244731689453126
1766000009061730000,33.63372998046875,0.315049409866333,-0.2256193161010742,-0.0016708076000213,32.26351147460937
1766000009080510000,33.65251000976563,0.5829248428344727,0.464695930480957,0.3363250494003296,32.28229150390625
1766000009099289600,33.67128955078125,1.0506720542907717,0.4216537475585937,0.4924681782722473,32.301071044921876
1766000009118069500,33.690069580078124,1.236212968826294,0.8139171600341797,0.5079749822616577,32.31985107421875
1766000009136849200,33.70884912109375,1.3701393604278564,1.3729887008666992,0.3104521036148071,32.33863061523437
1766000009155629000,33.72762915039063,1.699487805366516,1.4661359786987305,0.0406950488686561,32.35741064453125
1766000009174408700,33.74640869140625,0.5376524925231934,1.3488235473632812,-0.4236015975475311,32.376190185546875
1766000009193188600,33.76518872070312,0.0448520183563232,0.8605222702026367,-1.2153757810592651,32.394970214843745
1766000009211968500,33.78396850585938,-0.1221866607666015,0.161142349243164,-1.076641082763672,32.41375
1766000009230748200,33.802748046875,-0.1001944541931152,-0.0534305572509765,-0.4493148326873779,32.432529541015626
1766000009249528000,33.82152807617187,0.5395922660827637,0.2476301193237304,0.2814623117446899,32.451309570312496
1766000009268307700,33.8403076171875,0.2393703460693359,0.5462312698364258,1.0239728689193726,32.47008911132812
1766000009287087600,33.859087646484376,0.1083014011383056,0.3161945343017578,1.6199421882629397,32.488869140625
1766000009305867300,33.8778671875,0.0486377477645874,0.1106414794921875,2.1052608489990234,32.507648681640624
1766000009324647200,33.89664721679687,-0.203665018081665,-0.1914482116699218,2.449810028076172,32.526428710937495
1766000009343426800,33.9154267578125,0.4606432318687439,-0.6594982147216797,2.697485446929932,32.54520825195312
1766000009362206700,33.934206787109375,-8.248235702514648,-4.566005706787109,2.576718807220459,32.56398828125
1766000009380986600,33.95298657226562,-1.429696559906006,-1.3348417282104492,-1.0063979625701904,32.582768066406246
1766000009399766300,33.97176635742188,-3.402062177658081,1.230545997619629,3.355722427368164,32.6015478515625
1766000009418546200,33.990546142578125,-3.883270263671875,0.3046827316284179,1.1472355127334597,32.62032763671875
1766000009437325800,34.00932592773437,-2.436168670654297,-2.727472305297852,-0.581620454788208,32.639107421874996
1766000009456105700,34.02810571289063,-1.9627684354782104,-1.423537254333496,-5.04789924621582,32.65788720703125
1766000009474885400,34.04688549804688,-2.5267891883850098,-1.1225948333740234,-2.044873714447021,32.676666992187506
1766000009493665300,34.065665283203124,-3.65997576713562,-1.3751344680786133,0.9643365740776062,32.69544677734375
1766000009512445200,34.08444506835937,-3.375918388366699,-0.6752538681030273,1.3017542362213137,32.714226562499995
1766000009531224800,34.10322485351563,-3.0585479736328125,-0.4503736495971679,1.2382798194885254,32.73300634765625
1766000009550004700,34.122004638671875,-3.0026156902313232,-0.780360221862793,0.3026737570762634,32.7517861328125
1766000009568784400,34.14078442382812,-2.890846014022827,-1.0151443481445312,-0.2957350015640259,32.770565917968746
