time,seconds_elapsed,z,y,x,t
1766000008573455600,33.14545556640625,-2.781987428665161,-1.406721115112305,-1.892714262008667,31.77523706054687
1766000008592235300,33.1642353515625,-2.543296337127685,-0.987980842590332,-2.2827579975128174,31.794016845703126
1766000008611015200,33.18301513671875,-2.2262470722198486,-0.7217597961425781,-2.343228340148926,31.812796630859374
1766000008629795000,33.20179516601563,-1.915178656578064,-0.4408807754516601,-2.157388925552368,31.83157666015625
1766000008648574700,33.22057470703125,-1.937077522277832,0.1128797531127929,-1.7362658977508545,31.85035620117187
1766000008667354600,33.239354736328124,-1.9714155197143557,0.6407241821289062,-1.6110304594039917,31.869136230468747
1766000008686134300,33.25813427734375,-1.8564372062683103,0.7973909378051758,-1.6241055727005005,31.887915771484373
1766000008704914200,33.2769140625,-1.681493043899536,0.8423404693603516,-1.406352400779724,31.90669555664062
1766000008723693800,33.29569384765625,-1.3922812938690186,0.8717422485351562,-1.1736712455749512,31.925475341796876
1766000008751863600,33.32386352539063,-1.1194870471954346,0.7155256271362305,-0.212442398071289,31.95364501953125
1766000008770643500,33.3426435546875,-0.6484465599060059,0.2024517059326172,0.2486137598752975,31.97242504882812
1766000008789423000,33.361423095703124,-0.7366881370544434,-0.1192445755004882,0.5442452430725098,31.991204589843747
1766000008808203000,33.380203125,-0.8411722183227539,-0.2194776535034179,0.5651676058769226,32.009984619140624
1766000008826982700,33.39898266601563,-1.6097526550292969,1.4440317153930664,1.4036917686462402,32.02876416015625
1766000008845762600,33.417762451171875,0.6199727058410645,3.3382701873779297,3.2375590801239014,32.0475439453125
1766000008864542200,33.43654223632812,2.6147589683532715,3.2048377990722656,2.760750770568848,32.066323730468746
1766000008883322000,33.45532202148438,3.441962718963623,4.182784080505371,-0.0669754743576049,32.085103515625
1766000008902101800,33.474101806640626,4.896625995635986,4.360861778259277,-1.7950127124786377,32.10388330078125
1766000008920881700,33.49288159179687,6.461363792419434,6.180536270141602,-1.8980275392532349,32.122663085937496
1766000008939661600,33.51166162109375,5.994884490966797,4.538939476013184,-3.858796358108521,32.141443115234374
1766000008958441200,33.530441162109376,4.211386203765869,3.3480148315429688,-3.375103712081909,32.16022265625
1766000008977221000,33.54922119140625,1.2426280975341797,2.4005794525146484,-0.967516839504242,32.17900268554687
1766000008996000800,33.56800073242187,0.3157868385314941,1.024333953857422,0.1652695536613464,32.197782226562495
1766000009014780700,33.58678076171875,0.3314933776855469,-0.3640985488891601,0.362503170967102,32.21656225585937
1766000009042950100,33.6149501953125,0.3955330848693847,-1.0141925811767578,-0.0573501884937286,32.244731689453126
1766000009061730000,33.63372998046875,0.315049409866333,-0.2256193161010742,-0.0016708076000213,32.26351147460937
1766000009080510000,33.65251000976563,0.5829248428344727,0.464695930480957,0.3363250494003296,32.28229150390625
1766000009099289600,33.67128955078125,1.0506720542907717,0.4216537475585937,0.4924681782722473,32.301071044921876
1766000009118069500,33.690069580078124,1.236212968826294,0.8139171600341797,0.5079749822616577,32.31985107421875
1766000009136849200,33.70884912109375,1.3701393604278564,1.3729887008666992,0.3104521036148071,32.33863061523437
1766000009155629000,33.72762915039063,1.699487805366516,1.4661359786987305,0.0406950488686561,32.35741064453125
1766000009174408700,33.74640869140625,0.5376524925231934,1.3488235473632812,-0.4236015975475311,32.376190185546875
1766000009193188600,33.76518872070312,0.0448520183563232,0.8605222702026367,-1.2153757810592651,32.394970214843745
1766000009211968500,33.78396850585938,-0.1221866607666015,0.161142349243164,-1.076641082763672,32.41375
1766000009230748200,33.802748046875,-0.1001944541931152,-0.0534305572509765,-0.4493148326873779,32.432529541015626
1766000009249528000,33.82152807617187,0.5395922660827637,0.2476301193237304,0.2814623117446899,32.451309570312496
1766000009268307700,33.8403076171875,0.2393703460693359,0.5462312698364258,1.0239728689193726,32.47008911132812
1766000009287087600,33.859087646484376,0.1083014011383056,0.3161945343017578,1.6199421882629397,32.488869140625
1766000009305867300,33.8778671875,0.0486377477645874,0.1106414794921875,2.1052608489990234,32.507648681640624
1766000009324647200,33.89664721679687,-0.203665018081665,-0.1914482116699218,2.449810028076172,32.526428710937495
1766000009343426800,33.9154267578125,0.4606432318687439,-0.6594982147216797,2.697485446929932,32.54520825195312
1766000009362206700,33.934206787109375,-8.248235702514648,-4.566005706787109,2.576718807220459,32.56398828125
1766000009380986600,33.95298657226562,-1.429696559906006,-1.3348417282104492,-1.0063979625701904,32.582768066406246
1766000009399766300,33.97176635742188,-3.402062177658081,1.230545997619629,3.355722427368164,32.6015478515625
1766000009418546200,33.990546142578125,-3.883270263671875,0.3046827316284179,1.1472355127334597,32.62032763671875
1766000009437325800,34.00932592773437,-2.436168670654297,-2.727472305297852,-0.581620454788208,32.639107421874996
1766000009456105700,34.02810571289063,-1.9627684354782104,-1.423537254333496,-5.04789924621582,32.65788720703125
1766000009474885400,34.04688549804688,-2.5267891883850098,-1.1225948333740234,-2.044873714447021,32.676666992187506
1766000009493665300,34.065665283203124,-3.65997576713562,-1.3751344680786133,0.9643365740776062,32.69544677734375
1766000009512445200,34.08444506835937,-3.375918388366699,-0.6752538681030273,1.3017542362213137,32.714226562499995
1766000009531224800,34.10322485351563,-3.0585479736328125,-0.4503736495971679,1.2382798194885254,32.73300634765625
1766000009550004700,34.122004638671875,-3.0026156902313232,-0.780360221862793,0.3026737570762634,32.7517861328125
1766000009568784400,34.14078442382812,-2.890846014022827,-1.0151443481445312,-0.2957350015640259,32.770565917968746
1766000009587564300,34.15956420898438,-2.9945099353790283,-0.8866176605224609,-0.9146192669868468,32.789345703125
1766000009606344000,34.178343994140626,-3.138392925262451,-0.6577167510986328,-0.6194890737533569,32.80812548828125
1766000009625123800,34.197123779296874,-3.0970165729522705,-0.4820137023925781,0.1919000446796417,32.8269052734375
1766000009643903500,34.21590356445312,-2.7060108184814453,-0.5774202346801758,0.8139964938163757,32.845685058593745
1766000009662683400,34.23468334960938,-2.162788391113281,-1.0416336059570312,0.691832423210144,32.86446484375
1766000009681463000,34.253463134765624,-1.987358570098877,-1.1657791137695312,0.3371920585632324,32.88324462890625
1766000009700243000,34.27224291992187,-2.3459861278533936,-0.5146360397338867,-0.1691028028726577,32.902024414062495
1766000009719022600,34.29102270507813,-5.595034122467041,4.617866516113281,-0.7056390643119812,32.92080419921875
1766000009737802500,34.309802490234375,4.494165420532227,-1.6642918586730957,-1.2308297157287598,32.939583984375
1766000009756582400,34.32858251953125,9.339067459106444,-2.8139476776123047,-5.4053144454956055,32.958364013671876
1766000009775362000,34.34736206054688,5.009573936462402,-6.123497486114502,-6.477157115936279,32.9771435546875
1766000009794142000,34.366141845703126,2.2730233669281006,-0.1198320388793945,-0.8684399127960205,32.99592333984375
1766000009812921600,34.384921630859374,6.037805557250977,1.7420921325683594,-1.6843562126159668,33.014703125
1766000009831701500,34.40370141601562,7.866265296936035,-0.3227262496948242,-3.737481594085693,33.033482910156245
1766000009850481200,34.42248120117188,5.269018173217773,-2.138850212097168,-3.2206926345825195,33.0522626953125
1766000009869261000,34.441260986328125,2.0265791416168213,-1.3647770881652832,-1.735877275466919,33.07104248046875
1766000009888041000,34.460041015625,0.5840737819671631,-0.9183530807495116,0.4156315922737121,33.089822509765625
1766000009906820600,34.47882055664063,-0.0440223217010498,-1.0838537216186523,1.9851436614990237,33.10860205078125
1766000009925600500,34.4976005859375,-0.7783291339874268,-0.8924007415771484,1.7672386169433594,33.12738208007812
1766000009944380200,34.51638012695312,-0.9502356052398682,-0.3396282196044922,1.785382628440857,33.146161621093746
1766000009963160000,34.53516015625,-0.6126129627227783,-0.0821561813354492,1.996934413909912,33.164941650390624
1766000009981939700,34.553939697265626,-0.2587156295776367,-0.122894287109375,1.885814428329468,33.18372119140625
1766000010000719600,34.5727197265625,0.3304846286773681,0.0288858413696289,1.7448662519454956,33.20250122070312
1766000010019499300,34.59149926757812,1.118149995803833,-0.2653989791870117,1.5457512140274048,33.221280761718745
1766000010038279200,34.61027905273438,1.9031474590301516,0.3920345306396484,-0.5736913084983826,33.240060546875
1766000010057059000,34.62905908203125,2.491281509399414,0.2763900756835937,0.0405472703278064,33.25884057617187
1766000010075838700,34.64783862304687,2.7792277336120605,0.2533340454101562,-1.886731505393982,33.277620117187496
1766000010094618600,34.66661865234375,2.155478000640869,0.4798145294189453,-1.9474568367004397,33.29640014648437
1766000010113398300,34.685398193359376,0.8798346519470215,0.5685853958129883,0.9576531648635864,33.3151796875
1766000010132178200,34.70417822265625,-0.6046271324157715,0.1296987533569336,0.4455518722534179,33.333959716796876
1766000010150957800,34.72295776367187,-0.8940138816833496,0.1206016540527343,0.904895007610321,33.352739257812495
1766000010169737700,34.74173779296875,-0.7374625205993652,-0.114816665649414,0.480610191822052,33.37151928710937
1766000010188517600,34.760517578125,-0.5186443328857422,-0.1745328903198242,-0.0247673392295837,33.39029907226562
1766000010207297300,34.77929736328125,-0.2641291618347168,0.1426525115966797,-0.1745622605085373,33.409078857421875
1766000010226077200,34.7980771484375,-0.1515693664550781,0.45001220703125,-0.1196238026022911,33.42785864257812
1766000010244856800,34.81685693359375,-0.0543367862701416,0.4917488098144531,0.1431666314601898,33.44663842773437
1766000010263636700,34.83563671875,-0.160595417022705,0.3468379974365234,-0.2212012559175491,33.465418212890626
1766000010282416400,34.85441650390625,-0.2696540355682373,0.3553628921508789,-0.1986121237277984,33.484197998046874
1766000010301196300,34.8731962890625,-0.4920434951782226,0.3375072479248047,-0.0716350674629211,33.50297778320312
1766000010319976000,34.891975830078124,-0.585890531539917,0.3249998092651367,0.0098891854286193,33.52175732421875
1766000010338755800,34.910755859375,-0.5150489807128906,0.2941179275512695,0.1495715081691742,33.540537353515624
1766000010357535700,34.92953564453125,-0.3439183235168457,0.2112369537353515,0.2403357774019241,33.55931713867187
1766000010376315400,34.9483154296875,-0.0867791175842285,0.0962457656860351,0.2354085445404052,33.57809692382812
1766000010395095300,34.96709521484375,0.1532392501831054,0.0204582214355468,0.028806909918785,33.596876708984375
1766000010413875000,34.985875,0.2905826568603515,0.0749101638793945,-0.1961550265550613,33.61565649414062
1766000010432654800,35.00465478515625,0.340451717376709,0.1777496337890625,0.0511108487844467,33.63443627929687
1766000010451434500,35.0234345703125,0.2699778079986572,0.1840667724609375,0.241959348320961,33.653216064453126
1766000010470214400,35.04221435546875,0.1556942462921142,0.059523582458496,0.2510021924972534,33.671995849609374
1766000010488994000,35.060994140625,0.0459105968475341,-0.0765857696533203,0.1033059060573577,33.69077563476562
1766000010507774000,35.07977392578125,0.0956943035125732,-0.0722370147705078,0.0239898115396499,33.70955541992187
1766000010526553900,35.098553955078124,0.0923578739166259,0.0177984237670898,-0.1274966895580291,33.72833544921875
1766000010545333500,35.11733349609375,0.0791242122650146,-0.2228527069091797,-0.2599826455116272,33.74711499023437
1766000010564113400,35.13611352539063,0.1353957653045654,-0.2400856018066406,-0.2955648303031921,33.76589501953125
