time,seconds_elapsed,z,y,x,t
1765999982002518000,6.57451806640625,0.0061850058846175,-0.1350011229515075,-0.0743727833032608,5.183172363281249
1765999982021297700,6.593297607421875,0.0101556265726685,-0.148134708404541,-0.0699440166354179,5.201951904296875
1765999982040077300,6.612077392578125,0.0098501946777105,-0.1511890292167663,-0.0635299384593963,5.220731689453125
1765999982058857000,6.63085693359375,0.0116827888414263,-0.1395826041698455,-0.0603228956460952,5.23951123046875
1765999982077636600,6.64963671875,0.0133626665920019,-0.1357647031545639,-0.0597120337188243,5.258291015625
1765999982096416300,6.668416259765625,0.0124463699758052,-0.1383608728647232,-0.0594066008925437,5.277070556640625
1765999982115196000,6.68719580078125,0.011530072428286,-0.1449276655912399,-0.0616973415017128,5.295850097656251
1765999982133975300,6.705975341796875,0.0135153830051422,-0.1443168073892593,-0.0629190728068351,5.3146296386718745
1765999982152755000,6.7247548828125,0.0104610593989491,-0.1414151936769485,-0.0626136362552642,5.3334091796875
1765999982171534600,6.74353466796875,0.0063377222977578,-0.1284343153238296,-0.0632245019078254,5.35218896484375
1765999982190314200,6.762314208984375,0.0029779658652842,-0.1091920807957649,-0.0665842592716217,5.370968505859375
1765999982209094000,6.781093994140625,-0.0037415467668324,-0.0923933014273643,-0.0707075968384742,5.389748291015625
1765999982227873500,6.79987353515625,-0.0081703159958124,-0.0713184624910354,-0.0676532760262489,5.40852783203125
1765999982256043000,6.82804296875,-0.0103083429858088,-0.0517707914113998,-0.0604756139218807,5.436697265625
1765999982274822700,6.84682275390625,-0.008475748822093,-0.0409279391169548,-0.0551305450499057,5.45547705078125
1765999982293602000,6.86560205078125,-0.004657844081521,-0.0343611426651477,-0.0499381944537162,5.474256347656251
1765999982321771500,6.893771484375,0.0032833982259035,-0.0303905233740806,-0.0421496704220771,5.50242578125
1765999982340551200,6.91255126953125,0.0072540193796157,-0.0372627526521682,-0.0384844802320003,5.52120556640625
1765999982359330800,6.931330810546875,0.0144316805526614,-0.0323758348822593,-0.0372627526521682,5.5399851074218756
1765999982378110500,6.9501103515625,0.0211511924862861,-0.0320704020559787,-0.0407752245664596,5.558764648437499
1765999982396890000,6.96889013671875,0.0272598415613174,-0.0496327616274356,-0.0418442375957965,5.577544433593751
1765999982415669800,6.987669677734375,0.0355065166950225,-0.0713184624910354,-0.0461202897131443,5.5963239746093745
1765999982434449400,7.006449462890625,0.041767880320549,-0.0852156355977058,-0.0502436272799968,5.615103759765626
1765999982453228800,7.025228759765625,0.0465020798146724,-0.096211202442646,-0.0537560991942882,5.6338830566406255
1765999982472008400,7.044008544921875,0.0536797419190406,-0.1015562713146209,-0.0566577091813087,5.652662841796875
1765999982490788000,7.0627880859375,0.0581085123121738,-0.1101083755493164,-0.0565049909055233,5.671442382812501
1765999982509567700,7.081567626953125,0.0599411055445671,-0.1266017258167266,-0.0539088174700737,5.690221923828124
1765999982528347400,7.100347412109375,0.0642171576619148,-0.1311832070350647,-0.047036588191986,5.709001708984376
1765999982547127000,7.119126953125,0.0735328495502471,-0.1163697391748428,-0.0410806573927402,5.72778125
1765999982565906700,7.13790673828125,0.0746018588542938,-0.1044578775763511,-0.0345138609409332,5.746561035156251
1765999982584686300,7.156686279296875,0.073380134999752,-0.0786488428711891,-0.0256563201546669,5.765340576171875
1765999982603466000,7.175466064453125,0.067576915025711,-0.0473420210182666,-0.0219911318272352,5.7841203613281245
1765999982622245400,7.194245361328125,0.0689513608813285,-0.0056504993699491,-0.0099265528842806,5.802899658203126
1765999982641025000,7.21302490234375,0.0727692693471908,0.016951497644186,0.0044287694618105,5.8216791992187495
1765999982659804700,7.2318046875,0.0776561871170997,0.0409279391169548,0.0200058221817016,5.840458984375001
1765999982687974100,7.25997412109375,0.0846811309456825,0.0945313274860382,0.0458148568868637,5.8686284179687505
1765999982706753800,7.27875390625,0.091400645673275,0.1224783882498741,0.065057098865509,5.887408203125
1765999982725533400,7.297533447265625,0.1007163301110267,0.134695678949356,0.0809395834803581,5.906187744140626
1765999982744313000,7.31631298828125,0.1104901656508445,0.1447749584913253,0.0920878648757934,5.924967285156249
1765999982772482300,7.344482421875,0.1259144991636276,0.157755821943283,0.1062904745340347,5.953136718750001
1765999982791262000,7.363261962890625,0.1366046369075775,0.1698204129934311,0.1195767819881439,5.971916259765624
1765999982819431400,7.391431396484375,0.1584430485963821,0.1679878085851669,0.1473711282014846,6.000085693359376
1765999982838211000,7.410211181640625,0.1677587330341339,0.1498145908117294,0.1679878085851669,6.018865478515625
1765999982856990700,7.42899072265625,0.1801287531852722,0.1539379209280014,0.1837175786495208,6.037645019531251
1765999982875770400,7.447770263671875,0.1897498667240142,0.1937968581914901,0.2014326602220535,6.0564245605468745
1765999982894550000,7.466550048828125,0.2013563066720962,0.2461785078048706,0.2144135385751724,6.075204345703126
1765999982913329700,7.48532958984375,0.2073122411966323,0.2692386507987976,0.2278525680303573,6.09398388671875
1765999982932109300,7.504109375,0.2210566848516464,0.2799287736415863,0.2354883700609207,6.112763671874999
1765999982950889000,7.522888916015625,0.2404516488313675,0.2761108875274658,0.2370155304670334,6.131543212890625
1765999982969668400,7.54166845703125,0.2606101930141449,0.2513708472251892,0.2414443045854568,6.15032275390625
1765999982988448000,7.560447998046875,0.2836703360080719,0.2237292230129242,0.2472475171089172,6.169102294921876
1765999983007227600,7.5792275390625,0.2989419400691986,0.1939495652914047,0.2509126961231231,6.1878818359375
1765999983026007300,7.59800732421875,0.321391224861145,0.1757763475179672,0.2493855506181717,6.206661621093749
1765999983044787000,7.616786865234375,0.3412443399429321,0.157755821943283,0.2544251680374145,6.225441162109375
1765999983063566600,7.635566650390625,0.3615556061267853,0.1200349256396293,0.2519817352294922,6.2442209472656245
1765999983091736000,7.663736083984375,0.3717875778675079,0.0728456228971481,0.210901066660881,6.272390380859376
1765999983110515700,7.682515625,0.3807978332042694,0.0551305450499057,0.1589775532484054,6.2911699218749995
1765999983129295000,7.701295166015625,0.3939314186573028,0.0667369738221168,0.1162170246243476,6.309949462890625
1765999983148074800,7.72007470703125,0.4235583543777466,0.0180205106735229,0.0503963455557823,6.3287290039062505
1765999983166854400,7.7388544921875,0.4424951672554016,-0.1227838173508644,-0.0302378069609403,6.3475087890625
1765999983185634000,7.757634033203125,0.4415788650512695,-0.2168570011854171,-0.1044578775763511,6.366288330078126
1765999983204413700,7.77641357421875,0.3566686809062958,-0.1044578775763511,-0.0977383628487587,6.385067871093749
1765999983223193300,7.795193359375,0.3184896111488342,0.083535760641098,-0.1356119811534881,6.403847656250001
1765999983241973000,7.813972900390625,0.2867246568202972,0.1721111536026001,-0.1695149689912796,6.422627197265625
1765999983260752600,7.832752685546875,0.2140317410230636,0.2664897739887237,-0.1872300505638122,6.441406982421876
1765999983279532300,7.8515322265625,0.1495855152606964,0.4387536346912384,-0.1951712965965271,6.4601865234375
1765999983298311700,7.870311767578125,0.1117118969559669,0.6417134404182434,-0.2171624302864074,6.478966064453125
1765999983326481200,7.898481201171875,0.0955239832401275,0.7345649003982544,-0.2283107042312622,6.507135498046875
1765999983345260800,7.9172607421875,0.1181259751319885,0.6032289862632751,-0.2112064957618713,6.5259150390625
1765999983364040400,7.93604052734375,0.1210275813937187,0.4454731345176697,-0.1979201883077621,6.54469482421875
1765999983382820000,7.954820068359375,0.1353829056024551,0.3559814393520355,-0.1728747338056564,6.563474365234375
1765999983401599700,7.973599853515625,0.1259144991636276,0.2770271897315979,-0.1427896469831466,6.582254150390625
1765999983420379400,7.99237939453125,0.1185841262340545,0.1786779463291168,-0.1101083755493164,6.601033691406251
1765999983439159000,8.011158935546876,0.1181259751319885,-0.0383317656815052,-0.090866133570671,6.619813232421876
1765999983457938700,8.029938720703125,0.1114064678549766,-0.2695440948009491,-0.058490302413702,6.638593017578126
1765999983476718300,8.04871826171875,0.0764344558119773,-0.4144717454910278,-0.0334448479115963,6.657372558593751
1765999983495497700,8.067497802734374,0.029245151206851,-0.416304349899292,-0.0303905233740806,6.676152099609375
1765999983514277400,8.08627734375,-0.03138317912817,-0.3553705811500549,-0.0342084281146526,6.694931640625001
1765999983533057000,8.10505712890625,-0.0878881737589836,-0.3135263621807098,-0.0354301556944847,6.71371142578125
1765999983551836700,8.123836669921875,-0.1433241516351699,-0.3087921440601349,-0.0348192937672138,6.732490966796876
1765999983570616300,8.1426162109375,-0.1929569095373153,-0.3028362095355987,-0.0346665754914283,6.7512705078124995
1765999983589396000,8.16139599609375,-0.2398407906293869,-0.2428187429904937,-0.0247400235384702,6.770050292968749
1765999983608175600,8.180175537109376,-0.279394268989563,-0.1484401375055313,-0.0062613640911877,6.788829833984375
1765999983626955300,8.198955322265626,-0.3073413372039795,-0.0685695707798004,0.0310013871639966,6.807609619140624
1765999983645734700,8.217734619140625,-0.3310123383998871,-0.0201585385948419,0.0768162459135055,6.826388916015624
1765999983664514300,8.236514404296875,-0.3433823585510254,0.0192422401160001,0.1360701322555542,6.845168701171874
1765999983683294000,8.2552939453125,-0.3328449428081512,0.0755945146083831,0.2102901935577392,6.863948242187499
1765999983702073600,8.274073486328126,-0.2315941154956817,0.0189368072897195,0.3075704276561737,6.882727783203125
1765999983730243000,8.3022431640625,-0.0448222048580646,-0.6023126840591431,0.5031998753547668,6.910897460937498
1765999983749022700,8.321022705078125,0.0962875634431839,-0.9882264733314514,0.6947059631347656,6.929677001953124
1765999983767802400,8.33980224609375,0.1909715980291366,-1.1397209167480469,0.9127846956253052,6.948456542968749
1765999983786581800,8.358581787109374,0.2784779667854309,-1.0877974033355713,0.8037453293800354,6.967236083984373
1765999983805361400,8.377361328125,0.3792706727981567,-1.035110354423523,0.9127846956253052,6.9860156249999985
1765999983824141000,8.39614111328125,0.5022072196006775,-0.9398154616355896,-0.03512472473084925,7.004795410156248
1765999983842920700,8.414920654296875,0.571234941482544,-0.9634864926338196,-0.03512472473084925,7.023574951171874
1765999983880479700,8.452479736328126,0.3526980578899383,-0.5630646347999573,-0.03512472473084925,7.061134033203125
1765999983899259400,8.47125927734375,0.1413388401269912,-0.2209803313016891,0.939051866531372,7.0799135742187485
1765999983918039000,8.4900390625,-0.1196531355381012,0.0774271115660667,0.6946296095848082,7.098693359374998
1765999983946208500,8.51820849609375,-0.6422479748725891,0.7531962990760803,0.939051866531372,7.126862792968749
1765999983964988200,8.53698828125,-0.38095055520534515,0.6264418363571167,0.4502073526382446,7.145642578124999
1765999983983767800,8.555767822265626,-0.6422479748725891,-0.2376264035701751,-0.0865900814533233,7.1644221191406245
1765999984002547500,8.57454736328125,0.0764344558119773,-1.2886192798614502,-0.5991056561470032,7.183201660156248
1765999984021327000,8.5933271484375,0.0764344558119773,-0.7631228417158127,-1.0438151359558103,7.201981445312498
1765999984040106800,8.612106689453125,0.0764344558119773,-1.2886192798614502,-0.8214603960514067,7.2207609863281235
1765999984058886400,8.630886474609374,0.0764344558119773,-0.03962985239923,-1.0438151359558103,7.239540771484373
1765999984077666000,8.649666015625,0.0764344558119773,-0.03962985239923,-0.03512472473084925,7.258320312499999
