time,seconds_elapsed,z,y,x,t
1765999837848693000,6.03869287109375,0.5763509273529053,0.2373161315917968,0.569411039352417,3.042214355468751
1765999837867472100,6.05747216796875,0.6152207851409912,0.4362125396728515,0.899153470993042,3.0609936523437504
1765999837886251300,6.076251220703125,0.6144309043884277,0.4745893478393554,1.3998053073883057,3.079772705078126
1765999837905030400,6.095030517578125,0.4323127269744873,0.362736701965332,1.8841408491134644,3.0985520019531254
1765999837923809300,6.113809326171875,0.0116486549377441,0.257669448852539,2.1656603813171387,3.1173308105468758
1765999837942588400,6.13258837890625,-0.0402655601501464,0.2085189819335937,2.185922622680664,3.1361098632812503
1765999837961367600,6.151367431640625,0.0359902381896972,0.0736312866210937,2.1657814979553223,3.1548889160156257
1765999837980146700,6.170146728515625,0.2480678558349609,-0.1486282348632812,1.7526065111160278,3.1736682128906253
1765999837998925800,6.18892578125,0.4584794044494629,-0.2202348709106445,1.589583396911621,3.1924472656250007
1765999838017705000,6.207705078125,0.2847633361816406,-0.1617879867553711,1.3020766973495483,3.2112265625000003
1765999838036484000,6.226484130859375,-0.0267939567565917,-0.0048208236694335,0.6585140228271484,3.2300056152343757
1765999838055263200,6.24526318359375,-0.1167020797729492,-0.0651626586914062,0.3117224872112274,3.248784667968751
1765999838074042400,6.26404248046875,-0.3898687362670898,-0.1485462188720703,0.123100072145462,3.2675639648437507
1765999838092821500,6.282821533203125,-0.6664466857910156,-0.1775393486022949,0.040408432483673,3.286343017578126
1765999838111600400,6.301600341796875,-0.8602819442749023,-0.0918464660644531,0.1945383846759796,3.3051218261718756
1765999838130379500,6.320379638671875,-0.829869270324707,-0.1384758949279785,0.3354606628417969,3.323901123046876
1765999838149158700,6.33915869140625,-0.503197193145752,-0.3093905448913574,0.626406192779541,3.3426801757812505
1765999838167937800,6.357937744140625,-0.4966001510620117,-0.3469009399414062,0.7481749057769775,3.361459228515626
1765999838186717000,6.376717041015625,-0.3034086227416992,0.0469675064086914,0.6622800827026367,3.3802385253906255
1765999838205496000,6.39549609375,-0.739229679107666,0.6593360900878906,0.3498153686523437,3.399017578125001
1765999838224275200,6.414275146484375,-1.1986947059631348,2.540545463562012,0.2403456419706344,3.4177966308593755
1765999838243054300,6.433054443359375,1.6870160102844238,2.470789909362793,-1.546684741973877,3.436575927734376
1765999838261833500,6.45183349609375,3.8797430992126474,0.4436073303222656,-3.578071355819702,3.4553549804687504
1765999838280612400,6.4706123046875,2.0020976066589355,3.2708816528320312,-1.3655521869659424,3.474133789062501
1765999838299391500,6.4893916015625,0.4234545230865478,3.078432083129883,-1.1081939935684204,3.4929130859375004
1765999838318170600,6.508170654296875,0.200350284576416,0.5963611602783203,-2.145238161087036,3.511692138671876
1765999838336949800,6.52694970703125,1.0547547340393066,0.937485694885254,-4.450966835021973,3.5304711914062503
1765999838355729000,6.54572900390625,2.3063948154449463,1.537824630737305,-3.813700675964356,3.549250488281251
1765999838374508000,6.564508056640625,3.3670356273651123,1.6041460037231443,-1.7413761615753174,3.5680295410156253
1765999838393287200,6.583287109375,3.1595404148101807,1.445659637451172,0.0260758399963378,3.5868085937500007
1765999838412066300,6.60206640625,2.9114532470703125,0.9983243942260742,1.063705563545227,3.6055878906250003
1765999838430845400,6.620845458984375,2.9484965801239014,0.5709428787231445,0.7059135437011719,3.6243669433593757
1765999838449624600,6.63962451171875,3.2801408767700195,0.6512317657470703,-0.7052726745605469,3.6431459960937502
1765999838468403700,6.65840380859375,3.8062124252319336,0.8278999328613281,-2.2794981002807617,3.6619252929687507
1765999838487182800,6.677182861328125,4.570117950439453,1.0443706512451172,-3.0198845863342285,3.680704345703126
1765999838505961700,6.695961669921875,5.077179908752441,1.2411870956420898,-2.9196155071258545,3.6994831542968756
1765999838524740900,6.714740966796875,5.528421878814697,1.748673439025879,-2.854614734649658,3.718262451171876
1765999838543520000,6.73352001953125,5.277609348297119,2.4331588745117188,-2.9875824451446533,3.7370415039062506
1765999838562299100,6.752299072265625,4.565728664398193,2.629879951477051,-1.8860282897949217,3.755820556640626
1765999838581078300,6.771078369140625,3.20072078704834,2.6784801483154297,-0.7549263834953308,3.7745998535156255
1765999838599857400,6.789857421875,1.92785120010376,2.645570755004883,-0.0123454928398132,3.793378906250001
1765999838618636500,6.808636474609375,0.546226978302002,2.2809152603149414,0.9150861501693726,3.8121579589843755
1765999838637415700,6.827415771484375,-0.5005278587341309,1.8041629791259768,1.293690204620361,3.830937255859376
1765999838656194800,6.84619482421875,-0.7966146469116211,1.001805305480957,1.3372530937194824,3.8497163085937505
1765999838674974000,6.864973876953125,-1.0132126808166504,0.3862886428833008,2.191700935363769,3.868495361328126
1765999838693753000,6.883753173828125,-0.3840479850769043,1.248988151550293,2.7186920642852783,3.8872746582031255
1765999838712532200,6.9025322265625,-0.7653937339782715,2.2115278244018555,3.472306728363037,3.906053710937501
1765999838731311000,6.92131103515625,-0.9192619323730468,1.564838409423828,3.021552085876465,3.9248325195312503
1765999838750090200,6.94009033203125,-0.6362872123718262,0.7230691909790039,1.947737693786621,3.943611816406251
1765999838768869400,6.958869384765625,-0.3574724197387695,0.8517980575561523,0.8624532222747803,3.9623908691406253
1765999838787648500,6.9776484375,-0.2901477813720703,1.110036849975586,-0.3380479216575622,3.9811699218750007
1765999838806427600,6.996427734375,-0.4836382865905761,0.7529134750366211,-1.3392903804779053,3.9999492187500003
1765999838825206800,7.015206787109375,-1.453744649887085,0.3428506851196289,-1.510042667388916,4.018728271484376
1765999838843986000,7.03398583984375,-2.1563820838928223,0.043487548828125,-1.2530542612075806,4.03750732421875
1765999838862765000,7.05276513671875,-2.6877691745758057,0.0989446640014648,-0.4282624721527099,4.056286621093751
1765999838881544200,7.071544189453125,-2.868143081665039,0.2392711639404297,0.5409592390060425,4.075065673828125
1765999838900323300,7.0903232421875,-3.291125059127808,0.3282928466796875,0.2544677257537842,4.093844726562501
1765999838919102200,7.109102294921875,-3.129213809967041,0.2962865829467773,0.1988191604614257,4.112623779296876
1765999838937881300,7.12788134765625,-4.350318908691406,-1.6799287796020508,0.2613091468811035,4.131402832031251
1765999838956660500,7.146660400390625,-3.500908613204956,-3.4211344718933105,0.7540631294250488,4.150181884765626
1765999838975439600,7.165439697265625,-5.400540351867676,2.5532045364379883,1.407149314880371,4.168961181640626
1765999838994218800,7.18421875,-1.2004386186599731,0.5439004898071289,1.046947956085205,4.187740234375001
1765999839012998000,7.202997802734375,-0.9765907526016236,-1.1543493270874023,-2.0129644870758057,4.2065192871093755
1765999839031777000,7.221777099609375,-1.759376049041748,0.9851131439208984,-5.1048665046691895,4.225298583984376
1765999839059945700,7.24994580078125,-3.1704020500183105,-1.7693753242492676,2.2718002796173096,4.25346728515625
1765999839078724900,7.268724853515625,-3.892367839813232,-2.049476623535156,0.2802495956420898,4.272246337890626
1765999839097504000,7.28750390625,-3.875530481338501,-1.6795144081115725,-1.9418611526489256,4.291025390625001
1765999839116283000,7.306282958984375,-3.838754892349243,-2.5434045791625977,-2.198884963989258,4.309804443359376
1765999839135062000,7.32506201171875,-3.838350296020508,-3.364461898803711,-1.816005825996399,4.328583496093751
1765999839153841200,7.343841064453125,-3.945886611938477,-3.3044981956481934,-1.8957502841949463,4.347362548828126
1765999839172620300,7.362620361328125,-3.9328012466430655,-2.8992228507995605,-2.1182422637939453,4.366141845703126
1765999839191399400,7.3813994140625,-3.615751028060913,-2.870668411254883,-1.7634392976760864,4.3849208984375005
1765999839210178600,7.400178466796875,-3.4147307872772217,-2.9564247131347656,-1.427829384803772,4.403699951171876
1765999839228957700,7.418957763671875,-3.314931154251098,-2.7198057174682617,-1.342811942100525,4.4224792480468755
1765999839247736800,7.43773681640625,-3.1947579383850098,-2.150710105895996,-1.1206700801849363,4.441258300781251
1765999839266516000,7.456515869140625,-3.219794750213623,-1.778315544128418,-0.835344672203064,4.4600373535156255
1765999839285295000,7.475295166015625,-3.2002339363098145,-1.817997455596924,-0.8333394527435303,4.478816650390626
1765999839304074200,7.49407421875,-2.9882094860076904,-1.9182367324829104,-0.9632763266563416,4.4975957031250005
1765999839322853400,7.512853271484375,-2.8951566219329834,-1.6167149543762207,-1.0945794582366943,4.516374755859376
1765999839341632300,7.53163232421875,-2.928639411926269,-1.2038865089416504,-1.0979745388031006,4.53515380859375
1765999839369801000,7.559801025390625,-2.528110980987549,-0.3211164474487304,-1.0527639389038086,4.563322509765626
1765999839388580000,7.578580078125,-2.362795352935791,0.2990226745605469,-0.6491999626159668,4.582101562500001
1765999839407359200,7.597359130859375,-2.3015451431274414,0.6885738372802734,-0.5102676749229431,4.6008806152343755
1765999839426138400,7.616138427734375,-1.9923677444458008,0.7000608444213867,-0.1507578492164611,4.619659912109376
1765999839444917500,7.63491748046875,-1.6563754081726074,0.5560927391052246,0.2044920921325683,4.6384389648437505
1765999839463696600,7.653696533203125,-1.0826025009155271,0.3126025199890136,0.6687476634979248,4.657218017578126
1765999839482475800,7.672475830078125,-0.6009316444396973,0.0977334976196289,1.839669942855835,4.6759973144531255
1765999839501255000,7.6912548828125,-1.124056339263916,0.2295608520507812,2.326432228088379,4.694776367187501
1765999839520034000,7.710033935546875,-1.522737979888916,2.8156180381774902,3.516308307647705,4.713555419921875
1765999839538813200,7.728813232421875,1.7152223587036133,5.113740921020508,5.265632152557373,4.732334716796876
1765999839557592300,7.74759228515625,2.400078773498535,6.131234169006348,4.562764644622803,4.75111376953125
1765999839576371500,7.766371337890625,4.6329755783081055,8.019593238830566,-0.1017436385154724,4.769892822265626
1765999839595150600,7.785150634765625,6.111003875732422,6.467423439025879,-2.721580982208252,4.788672119140625
1765999839613929700,7.8039296875,4.7957305908203125,3.0557966232299805,-4.029402732849121,4.807451171875001
1765999839632708600,7.82270849609375,2.9276442527771,0.8125438690185547,-4.373525142669678,4.82622998046875
1765999839651487700,7.84148779296875,1.3846468925476074,0.6613616943359375,-4.118834018707275,4.845009277343751
1765999839670267000,7.860266845703125,2.208703994750977,1.327265739440918,-2.064924716949463,4.863788330078125
1765999839689046000,7.8790458984375,3.58129620552063,1.527544021606445,-0.3713372945785522,4.882567382812501
1765999839707825200,7.8978251953125,4.571998119354248,1.613325119018555,0.0684421509504318,4.9013466796875
1765999839726604300,7.916604248046875,5.042667865753174,1.4072341918945312,0.4569712877273559,4.920125732421876
1765999839745383400,7.935383544921875,4.632501602172852,0.2039299011230468,-0.0944549441337585,4.938905029296875
1765999839764162600,7.95416259765625,5.39981746673584,0.2052145004272461,-1.6193479299545288,4.957684082031251
1765999839782941700,7.972941650390625,5.604396820068359,1.5000276565551758,-3.088667154312134,4.976463134765626
1765999839801720800,7.991720947265625,5.547637939453125,2.039896011352539,-3.3347277641296387,4.995242431640626
1765999839820500000,8.0105,1.563612699508667,2.315760612487793,-1.6707398891448977,5.014021484375001
1765999839839279000,8.029279052734376,-1.7953462600708008,1.837486267089844,0.4952316284179687,5.0328005371093765
1765999839858058200,8.048058349609375,-3.89490270614624,0.4220609664916992,2.480954170227051,5.051579833984376
