time,seconds_elapsed,z,y,x,t
1765999844928424700,13.1184248046875,-1.599598407745361,2.3482203483581543,2.760756731033325,10.1219462890625
1765999844947203800,13.137203857421875,-0.7170381546020508,6.158963680267334,2.3821489810943604,10.140725341796877
1765999844965983000,13.15598291015625,0.4160547256469726,6.992273330688477,1.6625263690948486,10.15950439453125
1765999844984762000,13.17476220703125,4.283950805664063,7.672725677490234,-2.939141035079956,10.17828369140625
1765999845003541200,13.193541259765626,5.808831691741943,6.8838653564453125,-5.90913200378418,10.197062744140627
1765999845022320400,13.2123203125,4.858196258544922,3.6248369216918954,-6.851132392883301,10.215841796875
1765999845041099500,13.231099609375,3.1923670768737797,1.4020051956176758,-6.225312232971191,10.23462109375
1765999845059878700,13.249878662109374,1.9829120635986328,1.0108575820922852,-4.019170761108398,10.253400146484374
1765999845078658000,13.268657958984376,2.2038962841033936,0.9557018280029296,-1.7138525247573853,10.272179443359377
1765999845097437200,13.287437255859375,3.222750663757324,0.7051401138305664,-0.6232537031173706,10.290958740234377
1765999845116216300,13.30621630859375,5.090165138244629,-0.0763530731201171,0.0629517436027526,10.30973779296875
1765999845134995500,13.324995361328124,4.29414701461792,-0.381505012512207,1.078747034072876,10.328516845703124
1765999845153774600,13.343774658203126,3.770727634429932,0.2805061340332031,0.5291853547096252,10.347296142578127
1765999845172553700,13.3625537109375,3.983630418777466,0.9322023391723632,-1.944241285324097,10.3660751953125
1765999845200722400,13.390722412109374,5.122230052947998,0.4614019393920898,-4.446348190307617,10.394243896484376
1765999845219501600,13.40950146484375,4.646454811096191,1.3086566925048828,-4.1137285232543945,10.41302294921875
1765999845238280700,13.42828076171875,3.858732223510742,2.5693235397338867,-2.878645896911621,10.43180224609375
1765999845257059800,13.447059814453125,3.096452474594116,3.0334692001342773,-1.2323052883148191,10.450581298828126
1765999845275839000,13.4658388671875,2.502568244934082,3.0029430389404297,-0.1977828741073608,10.4693603515625
1765999845294618000,13.4846181640625,2.363393545150757,2.370698928833008,0.37492835521698,10.4881396484375
1765999845313397200,13.503397216796875,1.6938073635101318,1.4961023330688477,1.1289130449295044,10.506918701171877
1765999845332176600,13.5221767578125,0.5812721252441406,0.9113454818725586,1.601720690727234,10.525698242187502
1765999845350955800,13.540955810546874,-0.2322316169738769,0.4384679794311523,1.824777722358704,10.544477294921876
1765999845369735000,13.55973486328125,-0.9950900077819824,-0.0882854461669921,2.5783228874206543,10.56325634765625
1765999845388514000,13.57851416015625,-1.1811237335205078,-0.2306470870971679,3.484893560409546,10.58203564453125
1765999845416682800,13.606682861328125,0.3673243522644043,0.2215480804443359,2.614105701446533,10.610204345703124
1765999845435462000,13.6254619140625,0.4085206985473633,0.1709451675415039,1.825575590133667,10.628983398437502
1765999845454241000,13.644240966796875,0.0912327766418457,0.0782270431518554,1.0985369682312012,10.647762451171875
1765999845473020200,13.663020263671877,-0.0741658210754394,0.4242668151855469,0.9461002945899964,10.666541748046878
1765999845491799300,13.68179931640625,-0.0270547866821289,1.1644468307495115,1.045656442642212,10.685320800781252
1765999845510578400,13.700578369140626,-0.3273158073425293,1.2810020446777344,0.6754541397094727,10.704099853515626
1765999845529357600,13.719357666015624,-0.6470980644226074,0.9900856018066406,0.2822953462600708,10.722879150390625
1765999845548136700,13.73813671875,-0.8184781074523926,0.5077733993530273,0.954371213912964,10.741658203125002
1765999845566915800,13.756915771484374,-1.4642674922943115,0.2267513275146484,2.1556601524353027,10.760437255859376
1765999845585695000,13.775695068359376,-1.992595911026001,0.2201900482177734,2.6234889030456543,10.779216552734376
1765999845604474400,13.794474365234375,-2.655154228210449,0.0754899978637695,2.21870756149292,10.797995849609375
1765999845623253200,13.813253173828125,-3.44459080696106,0.0678863525390625,1.4836854934692385,10.816774658203126
1765999845642032600,13.83203271484375,-8.42132568359375,-2.322197437286377,-0.8789019584655762,10.835554199218752
1765999845660811800,13.850811767578126,-5.425594806671143,-1.7780179977416992,-6.741416931152344,10.854333251953125
1765999845679591000,13.8695908203125,0.6745889782905579,2.800967216491699,-0.3696749210357666,10.8731123046875
1765999845698370000,13.8883701171875,0.9487353563308716,0.5405979156494141,1.2913219928741455,10.891891601562502
1765999845717149200,13.907149169921874,0.5697430372238159,-0.6949615478515625,-4.244263648986816,10.910670654296876
1765999845735928300,13.92592822265625,-0.9086512923240662,0.6491355895996094,-5.720810890197754,10.92944970703125
1765999845754707500,13.94470751953125,-2.631680727005005,-1.616556167602539,0.1077038049697876,10.948229003906249
1765999845773486600,13.963486572265625,-4.0280351638793945,-2.687183380126953,4.031691551208496,10.967008056640626
1765999845792265700,13.982265625,-4.242799282073975,-2.3149356842041016,4.571323871612549,10.985787109375
1765999845811044900,14.001044921875,-3.914420127868652,-2.1299543380737305,2.0088653564453125,11.00456640625
1765999845829824000,14.019823974609375,-3.684096336364746,-2.633358955383301,-0.3393492698669433,11.023345458984377
1765999845848603100,14.03860302734375,-3.4502615928649902,-3.0800118446350098,-1.9355089664459229,11.04212451171875
1765999845867382300,14.05738232421875,-3.0214765071868896,-3.2506680488586426,-2.273160219192505,11.06090380859375
1765999845886161400,14.076161376953126,-3.021674871444702,-3.207313537597656,-1.450031876564026,11.079682861328127
1765999845904940500,14.0949404296875,-2.993893623352051,-3.042435646057129,-0.419848620891571,11.0984619140625
1765999845923720000,14.113719970703125,-3.0279061794281006,-2.8749732971191406,0.4157316386699676,11.117241455078126
1765999845942498800,14.132498779296874,-2.9895544052124023,-2.459449291229248,0.6663419008255005,11.136020263671874
1765999845961278200,14.1512783203125,-2.8412811756134038,-1.824112892150879,0.5154422521591187,11.1547998046875
1765999845980057300,14.170057373046877,-2.6330010890960693,-1.2684450149536133,0.0365057289600372,11.173578857421877
1765999845998836500,14.18883642578125,-2.4584128856658936,-1.040365219116211,-0.3583846688270569,11.19235791015625
1765999846017615600,14.20761572265625,-2.3586206436157227,-1.1342248916625977,-0.7185782790184021,11.21113720703125
1765999846036394800,14.226394775390624,-2.244354009628296,-1.2689766883850098,-0.7954579591751099,11.229916259765623
1765999846055174000,14.245173828125,-2.1556475162506104,-1.114213943481445,-0.7433596849441528,11.2486953125
1765999846073953000,14.263953125,-2.10699462890625,-0.7317895889282227,-0.6803754568099976,11.267474609375
1765999846092732200,14.282732177734376,-2.121171474456787,-0.2142553329467773,-0.7345895767211914,11.286253662109377
1765999846111511300,14.30151123046875,-2.0129823684692383,0.1452283859252929,-0.9527393579483032,11.305032714843751
1765999846130290400,14.32029052734375,-1.6970839500427246,0.2273225784301757,-0.8812387585639954,11.32381201171875
1765999846149069600,14.339069580078124,-1.2046475410461426,0.2145824432373047,-0.3496153056621551,11.342591064453124
1765999846167848700,14.3578486328125,-0.8973231315612793,0.2911405563354492,0.1157987117767334,11.361370117187501
1765999846186627800,14.3766279296875,-0.6330142021179199,0.2962970733642578,0.6384820342063904,11.380149414062501
1765999846205407200,14.3954072265625,-0.3971662521362304,0.2448306083679199,1.6605883836746216,11.3989287109375
1765999846224186000,14.41418603515625,-0.6586670875549316,0.2170882225036621,3.115929365158081,11.417707519531252
1765999846242965500,14.432965576171876,-2.422174453735352,0.7563862800598145,3.536526679992676,11.436487060546877
1765999846261744600,14.45174462890625,-2.391434669494629,3.064098358154297,4.551429748535156,11.455266113281251
1765999846280523800,14.470523681640625,0.9071483612060548,6.122184753417969,3.869271755218506,11.474045166015625
1765999846299303000,14.489302978515624,5.186201095581055,9.355969429016112,0.8025081157684326,11.492824462890624
1765999846318082000,14.50808203125,9.43474006652832,7.767059326171875,-3.036961793899536,11.511603515625001
1765999846336861200,14.526861083984375,6.725170135498047,3.9892730712890634,-7.237857818603516,11.530382568359375
1765999846355640300,14.545640380859377,3.9004271030426025,1.060342788696289,-6.0015363693237305,11.549161865234378
1765999846374419500,14.56441943359375,1.949507474899292,0.7891082763671875,-3.0107686519622803,11.567940917968752
1765999846393198600,14.583198486328126,1.7763209342956543,0.3829793930053711,-1.774240255355835,11.586719970703125
1765999846411977700,14.601977783203123,3.2729711532592773,0.217900276184082,-2.409187793731689,11.605499267578125
1765999846430757000,14.620757080078125,3.827590227127075,0.2034282684326172,-3.745784044265747,11.624278564453125
1765999846449536300,14.639536376953124,3.77544617652893,0.8526468276977539,-3.170737028121948,11.643057861328124
1765999846468315400,14.6583154296875,3.743171215057373,1.812098503112793,-3.661506414413452,11.661836914062501
1765999846487094500,14.677094482421875,4.180037975311279,2.3265151977539062,-3.862698793411255,11.680615966796875
1765999846505873700,14.695873779296877,4.127063274383545,2.027414321899414,-3.4635567665100098,11.699395263671878
1765999846524652800,14.71465283203125,3.115374565124512,1.6546764373779297,-3.217140913009644,11.718174316406252
1765999846543432000,14.733431884765626,2.125609874725342,1.9051647186279297,-2.56986665725708,11.736953369140625
1765999846562211000,14.752211181640623,1.2551538944244385,1.3870115280151367,0.7399836778640747,11.755732666015625
1765999846580990200,14.770990234375,0.3128013610839844,0.0467348098754882,4.074933052062988,11.774511718750002
1765999846599769300,14.789769287109374,-1.7592425346374512,-1.2941880226135254,5.467217445373535,11.793290771484376
1765999846618548700,14.808548828125,-1.565150260925293,-1.8302078247070312,6.276243686676025,11.812070312500001
1765999846637328000,14.827327880859375,0.4111871719360351,-1.3543429374694824,5.2771196365356445,11.830849365234375
1765999846656107000,14.84610693359375,0.8989572525024414,0.1754779815673828,3.16801118850708,11.849628417968752
1765999846674886100,14.86488623046875,2.18404483795166,1.9835052490234373,0.1426045894622802,11.868407714843752
1765999846693665300,14.883665283203126,2.3772692680358887,4.266462326049805,-2.8732287883758545,11.887186767578125
1765999846712444400,14.9024443359375,0.7762808799743652,5.610587120056152,-4.263978004455566,11.905965820312499
1765999846731223600,14.9212236328125,-0.0216758251190185,5.104323387145996,-2.108215808868408,11.924745117187502
1765999846750002700,14.940002685546874,0.3289368152618408,4.106834411621094,1.3836283683776855,11.943524169921876
1765999846768781800,14.95878173828125,-6.507027626037598,-2.635873317718506,4.211991310119629,11.96230322265625
1765999846787561000,14.97756103515625,-5.148813247680664,-0.655517578125,-0.647476077079773,11.981082519531249
1765999846806340000,14.996340087890625,0.4127252101898193,6.473296165466309,3.274109125137329,11.999861572265626
1765999846825119200,15.015119140625,-0.1661106944084167,0.4666776657104492,1.349077224731445,12.018640625
1765999846843898600,15.033898681640624,0.3705601096153259,-1.9560742378234863,-3.667548418045044,12.037420166015625
1765999846862677500,15.052677490234377,-0.8786711096763611,-1.1951045989990234,-4.39885950088501,12.056198974609377
1765999846881457000,15.071456787109376,-2.493145227432251,-2.8553524017333984,-0.2622929811477661,12.074978271484376
1765999846900236000,15.090236083984376,-3.1836414337158203,-3.0895638465881348,3.185908317565918,12.093757568359376
1765999846919015200,15.10901513671875,-3.862629652023315,-2.2357635498046875,3.4340765476226807,12.11253662109375
1765999846937794300,15.127794189453123,-3.3064093589782715,-2.167752265930176,0.5273056030273438,12.131315673828123
