time,seconds_elapsed,z,y,x,t
1765999854111438000,22.30143798828125,-0.5117519497871399,0.1480583548545837,-1.3109921216964722,19.295569824218752
1765999854130217500,22.32021752929688,-0.2922987937927246,-0.3748418986797333,-1.0719913244247437,19.31434936523438
1765999854148996600,22.33899658203125,-0.1195767819881439,-0.5180897116661072,-0.7121919989585876,19.33312841796875
1765999854167775700,22.357775634765623,0.0178677942603826,-0.4174497127532959,-0.5296961069107056,19.351907470703125
1765999854186555000,22.376554931640623,0.1514944583177566,-0.5072468519210815,-0.432568609714508,19.370686767578125
1765999854205334000,22.395333984375,0.2307541668415069,-0.8099303245544434,-0.3673588037490845,19.389465820312502
1765999854224113400,22.414113525390626,0.1927278339862823,-1.139797329902649,-0.354683369398117,19.408245361328127
1765999854242892500,22.432892578125,0.0600174628198146,-1.365970015525818,-0.3601811528205871,19.4270244140625
1765999854261671700,22.451671630859376,-0.0978910773992538,-1.1465167999267578,-0.3733147382736206,19.445803466796878
1765999854280450800,22.470450927734376,-0.1976147592067718,-0.4869355857372284,-0.3479638397693634,19.464582763671878
1765999854299230000,22.48922998046875,-0.2877173125743866,0.3362047076225281,-0.2838230431079864,19.48336181640625
1765999854318009300,22.50800927734375,-0.3520108163356781,0.9444733262062072,-0.2039524763822555,19.50214111328125
1765999854336788500,22.52678857421875,-0.3422369956970215,1.172020435333252,-0.1282052397727966,19.52092041015625
1765999854355567600,22.54556762695313,-0.2756527364253998,1.0721440315246582,-0.0501672700047493,19.53969946289063
1765999854374346800,22.5643466796875,-0.1999054998159408,0.655228853225708,0.0519998632371425,19.558478515625
1765999854393126000,22.5831259765625,-0.086284652352333,0.0567340664565563,0.166842445731163,19.5772578125
1765999854411905300,22.6019052734375,0.0068722288124263,-0.4444804787635803,0.2543488144874573,19.596037109375
1765999854430684400,22.62068432617188,0.111635535955429,-0.6029998660087585,0.3116174042224884,19.61481616210938
1765999854449463600,22.63946362304688,0.1863137632608413,-0.5513818264007568,0.4004982113838196,19.63359545898438
1765999854468242700,22.65824267578125,0.2527453005313873,-0.3783543705940246,0.5379427671432495,19.65237451171875
1765999854487021800,22.677021728515623,0.2826776802539825,-0.2908479869365692,0.7040980458259583,19.671153564453125
1765999854515190800,22.705190673828124,0.4248564541339874,-0.2699258625507355,0.9027817845344543,19.699322509765626
1765999854533970000,22.723969970703124,0.5149590373039246,-0.2230419963598251,0.955010712146759,19.718101806640625
1765999854552749000,22.7427490234375,0.5688678026199341,-0.2471711635589599,0.92782723903656,19.736880859375002
1765999854571528200,22.761528076171874,0.6640099883079529,-0.3592648506164551,0.8082504868507385,19.755659912109376
1765999854590307300,22.780307373046877,0.8985821008682251,-0.5330559015274048,0.6213258504867554,19.77443920898438
1765999854609086700,22.799086669921877,1.1517854928970337,-0.7065414786338806,0.4214203357696533,19.79321850585938
1765999854627865900,22.81786596679688,1.229365348815918,-0.8010727763175964,0.1796706020832061,19.811997802734382
1765999854646645000,22.83664501953125,1.1998910903930664,-0.6947823166847229,-0.1888335794210434,19.830776855468752
1765999854674813700,22.864813720703125,1.1184934377670288,-0.208381250500679,-0.9148463606834412,19.858945556640627
1765999854702982400,22.892982421875,1.0169371366500854,0.358348548412323,-1.6324597597122192,19.887114257812502
1765999854721761800,22.91176171875,0.9176716208457948,0.6002510190010071,-2.0762529373168945,19.905893554687502
1765999854740541000,22.930541015625,0.8359684348106384,0.3887390792369842,-2.4556000232696533,19.9246728515625
1765999854759320000,22.949320068359373,0.8011491298675537,-0.3192532062530517,-2.750647783279419,19.943451904296875
1765999854778099200,22.96809912109375,0.7681624889373779,-1.446146011352539,-2.920620918273926,19.962230957031252
1765999854796878300,22.98687841796875,0.5514581799507141,-3.42153000831604,-2.133674383163452,19.981010253906252
1765999854815657700,23.00565771484375,0.0942258909344673,-2.127718448638916,-1.147433161735535,19.99978955078125
1765999854834436900,23.024436767578123,0.3346011936664581,-1.6035964488983154,-1.5918372869491575,20.018568603515625
1765999854853216000,23.043216064453127,0.8329141139984131,-1.177976369857788,-1.6171880960464478,20.03734790039063
1765999854871995100,23.0619951171875,0.5513054728507996,-0.0431423261761665,-1.404607176780701,20.056126953125002
1765999854890774300,23.080774169921877,0.3662134408950805,0.5594757795333862,-1.093982458114624,20.07490600585938
1765999854909553700,23.0995537109375,0.1266017258167266,0.3870591819286346,-0.6790525317192078,20.093685546875
1765999854928332800,23.11833276367188,-0.1776089370250702,0.3980547487735748,-0.3233765363693237,20.112464599609382
1765999854947112000,23.13711181640625,-0.4291325211524963,0.9009491801261902,0.0918587893247604,20.131243652343752
1765999854965891000,23.15589111328125,-0.5648971796035767,1.5246421098709106,0.5154935121536255,20.15002294921875
1765999854984670200,23.174670166015623,-0.6166679859161377,1.9832488298416135,0.858646810054779,20.168802001953125
1765999855003449300,23.193449462890623,-0.5984947681427002,2.159025192260742,1.1610249280929563,20.187581298828125
1765999855022228700,23.212228759765622,-0.4770853817462921,1.9583561420440676,1.4858522415161133,20.206360595703124
1765999855041007900,23.2310078125,-0.3587303459644317,1.5477023124694824,1.7836488485336304,20.2251396484375
1765999855059787000,23.249787109375,-0.2840521335601806,1.2040908336639404,2.0567052364349365,20.2439189453125
1765999855078566100,23.268566162109376,-0.2654207348823547,1.061453938484192,2.2970807552337646,20.262697998046878
1765999855097345300,23.28734521484375,-0.2637408673763275,1.0495420694351196,2.4959170818328857,20.281477050781252
1765999855116124700,23.306124755859376,-0.2606865465641022,1.099632978439331,2.6403865814208984,20.300256591796877
1765999855134903800,23.32490380859375,-0.2510654330253601,1.115057349205017,2.7129268646240234,20.31903564453125
1765999855163072500,23.353072509765624,-0.2273944169282913,0.960661232471466,2.693989992141724,20.347204345703126
1765999855181851600,23.3718515625,-0.2286161482334137,0.6992111206054688,2.586630582809448,20.365983398437503
1765999855200630800,23.390630859375,-0.2458730787038803,0.4127155244350433,2.421544313430786,20.384762695312503
1765999855219410200,23.40941015625,-0.2938259541988373,0.1214857324957847,2.189415693283081,20.403541992187503
1765999855238189300,23.42818920898437,-0.3478874862194061,-0.1654679924249649,1.9088760614395144,20.422321044921873
1765999855256968400,23.44696850585937,-0.4149298965930938,-0.4336376488208771,1.5910736322402954,20.441100341796872
1765999855275747600,23.46574755859375,-0.5112938284873962,-0.5840631127357483,1.2082141637802124,20.459879394531253
1765999855294527000,23.48452685546875,-0.6210967898368835,-0.7186060547828674,0.7916043996810913,20.478658691406253
1765999855313306000,23.50330615234375,-0.7269290685653687,-0.921871304512024,0.3591121435165405,20.497437988281252
1765999855332085200,23.522085205078124,-0.9132428169250488,-1.0420589447021484,-0.0799469277262687,20.516217041015626
1765999855350864400,23.540864501953124,-1.09283709526062,-1.0695478916168213,-0.5067886710166931,20.534996337890625
1765999855369643500,23.5596435546875,-1.2092068195343018,-0.8598685264587402,-0.9449314475059508,20.553775390625002
1765999855388423000,23.5784228515625,-1.207526922225952,-0.6170498132705688,-1.128954529762268,20.572554687500002
1765999855407202000,23.5972021484375,-1.011439323425293,0.4365392327308655,-0.9076687097549438,20.591333984375
1765999855425981200,23.615981201171877,-0.1018617004156112,1.5289181470870972,-1.3519201278686523,20.61011303710938
1765999855454150000,23.64414990234375,-0.3746128380298614,1.9071961641311648,-1.8222860097885127,20.63828173828125
1765999855472929000,23.66292895507813,-0.6186532974243164,0.7305179238319397,-1.8427499532699585,20.65706079101563
1765999855491708400,23.68170849609375,-0.3016144931316376,-0.7416661977767944,-1.4061343669891355,20.675840332031253
1765999855510487600,23.700487548828125,-0.2487746775150299,-1.4853941202163696,-0.9518036842346193,20.694619384765627
1765999855529266700,23.7192666015625,-0.2205221801996231,-1.2092832326889038,-0.7479275465011597,20.7133984375
1765999855548045800,23.7380458984375,-0.10934479534626,-0.5739838480949402,-0.6738601922988892,20.732177734375
1765999855566825000,23.756824951171875,-0.013439024798572,-0.1547778695821762,-0.5719985365867615,20.750956787109377
1765999855585604400,23.775604248046875,0.0774271115660667,-0.0875827372074127,-0.4408152997493744,20.769736083984377
1765999855604383500,23.794383544921875,0.1163697391748428,-0.3032180070877075,-0.3132972717285156,20.788515380859376
1765999855623162600,23.81316259765625,0.1388190239667892,-0.5419133901596069,-0.1889862865209579,20.807294433593754
1765999855641941800,23.831941650390625,0.1421787738800048,-0.6355284452438354,-0.0480292439460754,20.826073486328127
1765999855660721000,23.850720947265625,0.1267544478178024,-0.4371501207351684,0.0910952091217041,20.844852783203127
1765999855679500300,23.869500244140625,0.1311832070350647,-0.0753654390573501,0.2485456019639969,20.863632080078126
1765999855698279400,23.888279541015624,0.1889099329710006,0.1682168841361999,0.4366919696331024,20.882411376953126
1765999855717058600,23.90705859375,0.2901607751846313,0.2491564750671386,0.663780927658081,20.901190429687503
1765999855735837700,23.92583764648437,0.402865320444107,0.2221257090568542,0.9043089747428894,20.919969482421873
1765999855754617000,23.9446171875,0.5175551772117615,0.1323285847902298,1.123304009437561,20.938749023437502
1765999855773396200,23.96339624023437,0.6223185062408447,0.0665079057216644,1.27372944355011,20.957528076171872
1765999855792175400,23.98217529296875,0.6374374032020569,-0.1570686101913452,1.3044253587722778,20.976307128906253
1765999855810954500,24.00095458984375,0.5904008150100708,-0.5312232971191406,1.160719394683838,20.995086425781253
1765999855829733600,24.019733642578124,0.5476402640342712,-0.9637155532836914,0.919275164604187,21.013865478515626
1765999855848513000,24.038512939453124,0.5077813267707825,-1.1631629467010498,0.6326268315315247,21.032644775390626
1765999855867292200,24.057292236328124,0.5262600183486938,-1.086957573890686,0.3875173330307007,21.051424072265625
1765999855886071300,24.0760712890625,0.5714640021324158,-0.8980475664138794,0.2128100246191024,21.070203125000003
1765999855904850400,24.094850341796874,0.5531380772590637,-0.6631700992584229,0.0208457615226507,21.088982177734376
1765999855923629600,24.113629638671878,0.4334085583686828,-0.3097847998142242,-0.2419788092374801,21.10776147460938
1765999855942409000,24.132408935546877,0.2186895906925201,0.0701730921864509,-0.5241983532905579,21.12654077148438
1765999855961188000,24.15118798828125,-0.0317649692296981,0.3334558010101318,-0.8386409878730774,21.145319824218753
1765999855979967200,24.16996728515625,-0.0378736145794391,0.6312524080276489,-1.21523916721344,21.164099121093752
1765999855998746400,24.188746337890624,0.1107192412018776,0.751592755317688,-1.659948706626892,21.182878173828126
1765999856017525500,24.207525390625,0.2304487377405166,0.4200458824634552,-2.1678826808929443,21.201657226562503
1765999856036304600,24.2263046875,0.268169641494751,-0.167300596833229,-2.726213216781616,21.220436523437503
1765999856055084000,24.245083984375,0.2136499583721161,-0.8329904675483704,-3.251251459121704,21.239215820312502
1765999856073863200,24.26386328125,0.0424551032483577,-1.8702389001846316,-2.985830783843994,21.2579951171875
1765999856092642300,24.282642333984374,-0.2138026654720306,-2.2723405361175537,-2.6958227157592773,21.276774169921875
1765999856111421400,24.30142138671875,-0.1363755613565445,-1.4997494220733645,-2.9786529541015625,21.295553222656253
1765999856130200600,24.32020068359375,0.1261435747146606,-0.8855248689651489,-3.169853687286377,21.314332519531252
1765999856148980000,24.33897998046875,0.0551305450499057,-0.8517745733261108,-2.887328624725342,21.33311181640625
