time,seconds_elapsed,z,y,x,t
1765999842881498000,11.071498046875,-1.974508285522461,6.397442817687988,7.132952690124512,8.07501953125
1765999842900277000,11.090277099609375,3.0834953784942627,5.8488945960998535,4.476776123046875,8.093798583984377
1765999842919056400,11.109056396484377,8.146509170532227,5.902826309204102,-1.4072701930999756,8.112577880859376
1765999842937835300,11.127835205078124,1.3319711685180664,4.840005874633789,-8.436418533325195,8.131356689453124
1765999842956614400,11.146614501953126,4.589023590087891,6.252498626708984,0.7965506315231321,8.150135986328127
1765999842975393800,11.165393798828124,4.495795249938965,4.101813316345215,3.00037145614624,8.168915283203123
1765999842994172700,11.184172607421877,0.0836641788482666,-0.2504940032958984,7.143184661865234,8.187694091796878
1765999843012952000,11.2029521484375,-3.6803059577941895,1.5090837478637695,0.9483087062835692,8.2064736328125
1765999843031731000,11.22173095703125,-2.617053985595703,-1.7743349075317385,3.8445422649383545,8.225252441406251
1765999843050510300,11.24051025390625,-2.97930121421814,-5.836971282958984,2.2040297985076904,8.244031738281251
1765999843069289500,11.25928955078125,-3.430647850036621,-4.609951019287109,-4.606387138366699,8.26281103515625
1765999843097458000,11.2874580078125,-3.7479403018951416,-2.7300620079040527,-5.203307628631592,8.2909794921875
1765999843116237300,11.3062373046875,-3.913827896118164,-2.4283719062805176,-2.838583946228028,8.3097587890625
1765999843135016400,11.325016357421877,-3.623548984527588,-2.3121047019958496,-1.808316707611084,8.328537841796877
1765999843153795600,11.343795654296876,-2.94325590133667,-1.7656917572021484,-1.1068034172058103,8.347317138671876
1765999843172574700,11.36257470703125,-3.261956214904785,-0.8362312316894531,-0.6542176008224487,8.36609619140625
1765999843191353900,11.381353759765624,-3.483294725418091,-0.3695354461669922,-0.4778817892074585,8.384875244140623
1765999843210133000,11.400133056640623,-3.378697156906128,-0.5174808502197266,0.0308159589767456,8.403654541015623
1765999843228912000,11.418912109375,-3.324206829071045,-0.6415634155273438,0.2478216886520385,8.42243359375
1765999843247691300,11.437691162109376,-3.3688650131225586,-0.5816850662231445,-0.0162907838821411,8.441212646484377
1765999843266470400,11.456470458984375,-3.203171730041504,-0.7492685317993164,0.004267394542694,8.459991943359377
1765999843285249500,11.47524951171875,-2.866215229034424,-1.1421566009521484,0.1396214365959167,8.47877099609375
1765999843304028700,11.494028564453124,-2.4695394039154053,-1.377546310424805,0.2382781505584716,8.497550048828124
1765999843322807800,11.512807861328126,-2.1324565410614014,-1.3527302742004397,0.5108134746551514,8.516329345703127
1765999843341587000,11.5315869140625,-1.7383222579956057,-1.016244888305664,0.925134539604187,8.535108398437501
1765999843360366000,11.550365966796877,-1.6230497360229492,-0.5175762176513672,1.5319511890411377,8.553887451171878
1765999843379145200,11.569145263671874,-1.281123399734497,-0.0657386779785156,1.8315305709838867,8.572666748046874
1765999843397924400,11.58792431640625,-1.2665369510650637,0.0301980972290039,1.8523764610290527,8.591445800781251
1765999843416703500,11.606703369140623,-2.282976627349853,0.4679555892944336,1.285410761833191,8.610224853515625
1765999843435482600,11.625482666015625,-2.3043534755706787,1.735407829284668,0.928058385848999,8.629004150390625
1765999843454261800,11.64426171875,1.363182544708252,2.01912784576416,-0.1761143207550048,8.647783203125002
1765999843473041000,11.663041015625,5.509461402893066,2.112642288208008,-3.4849495887756348,8.666562500000001
1765999843491820000,11.681820068359375,3.934075117111206,2.968228340148926,-4.304162502288818,8.685341552734375
1765999843510599200,11.70059912109375,2.327435255050659,1.8842811584472656,-3.3334577083587646,8.704120605468752
1765999843529378300,11.71937841796875,0.9166254997253418,0.2629375457763672,-2.540971279144287,8.722899902343752
1765999843548157400,11.738157470703126,-0.1769983768463134,0.662261962890625,-0.26713827252388,8.741678955078125
1765999843566936600,11.7569365234375,-0.1876239776611328,0.848576545715332,0.0693459808826446,8.760458007812499
1765999843585715700,11.7757158203125,0.5246279239654541,0.3479824066162109,-0.2893146574497223,8.779237304687502
1765999843604494800,11.794494873046874,0.718307375907898,-0.1185140609741211,-0.4047759473323822,8.798016357421876
1765999843642053000,11.83205322265625,-0.2994668483734131,-0.4417667388916015,0.762232780456543,8.835574707031249
1765999843660832300,11.850832275390625,-0.8646068572998047,-0.3686351776123047,1.3297020196914673,8.854353759765626
1765999843689001000,11.8790009765625,-1.0956470966339111,-0.2422513961791992,1.1272268295288086,8.882522460937501
1765999843707780000,11.897780029296875,-1.003584384918213,-0.1618356704711914,0.7742598056793213,8.901301513671875
1765999843726559200,11.916559326171877,-0.6507754325866699,-0.3817253112792969,0.8471409678459167,8.920080810546878
1765999843745338400,11.93533837890625,-0.5979735851287842,-0.6637506484985352,0.7266987562179565,8.938859863281252
1765999843764117500,11.954117431640626,-0.6143636703491211,-0.3296995162963867,0.7534612417221069,8.957638916015625
1765999843782896600,11.972896728515623,-0.6286147832870483,0.3340682983398437,0.9545410871505736,8.976418212890625
1765999843801676000,11.991676025390625,-0.137654423713684,0.401646614074707,0.9704251289367676,8.995197509765624
1765999843820455000,12.010454833984374,0.7020968198776245,0.0241861343383789,0.0293251276016235,9.013976318359376
1765999843839234300,12.029234375,2.7268314361572266,-0.3846244812011719,-1.210137128829956,9.032755859375001
1765999843858013400,12.048013427734375,4.135915756225586,-0.0949850082397461,-2.4533417224884038,9.051534912109375
1765999843876792600,12.06679248046875,4.023775577545166,0.4644765853881836,-2.490135669708252,9.070313964843752
1765999843895571700,12.08557177734375,2.598568916320801,0.7683210372924805,-1.2798210382461548,9.089093261718752
1765999843923740400,12.113740478515624,0.6451402902603149,0.2263431549072265,0.3692884147167206,9.117261962890623
1765999843942519600,12.13251953125,0.5471763610839844,0.1538009643554687,0.7589369416236877,9.136041015625
1765999843961298700,12.151298583984374,1.004522442817688,0.0684356689453125,0.4195139110088348,9.154820068359374
1765999843980077800,12.170077880859376,1.4688102006912231,0.0683784484863281,-0.235781729221344,9.173599365234377
1765999843998857000,12.18885693359375,2.0550382137298584,-0.0192995071411132,-0.912270188331604,9.19237841796875
1765999844017636000,12.207635986328125,3.1308889389038086,-0.3719587326049804,-1.4744083881378174,9.211157470703125
1765999844036415200,12.226415283203124,4.729875564575195,-0.5289649963378906,-2.0629162788391118,9.229936767578124
1765999844055194400,12.2451943359375,6.323836326599121,-0.4922513961791992,-2.750368356704712,9.248715820312501
1765999844073973500,12.263973388671875,6.785491466522217,0.0712423324584961,-3.2767038345336914,9.267494873046875
1765999844092752600,12.282752685546876,5.741379261016846,0.9774541854858398,-3.189670324325561,9.286274169921878
1765999844111531800,12.30153173828125,3.4662880897521973,1.7983179092407229,-2.033538818359375,9.305053222656252
1765999844130311000,12.320310791015626,0.9563370943069458,2.3486948013305664,-0.3133648633956909,9.323832275390625
1765999844149090000,12.339090087890623,-1.1256141662597656,2.4235734939575195,1.0044366121292114,9.342611572265625
1765999844167869200,12.357869140625,-0.5465383529663086,2.311389923095703,1.238645076751709,9.361390625000002
1765999844186648300,12.3766484375,-1.031177043914795,2.764859199523926,0.7912899255752563,9.380169921875002
1765999844205427500,12.395427490234376,-1.015183925628662,3.026050567626953,-0.1609062850475311,9.398948974609375
1765999844224206600,12.41420654296875,-1.8089570999145508,2.6233482360839844,-0.5844377875328064,9.417728027343749
1765999844242986000,12.432986083984376,-2.272674798965454,2.3436145782470703,-1.660009503364563,9.436507568359378
1765999844261765000,12.45176513671875,-2.108454465866089,1.9102163314819336,-1.4993245601654053,9.455286621093752
1765999844280544300,12.470544189453124,-2.5327539443969727,0.8920488357543945,0.5252082943916321,9.474065673828125
1765999844299323400,12.489323486328123,-1.7727794647216797,-0.2289152145385742,2.533353328704834,9.492844970703125
1765999844318102500,12.5081025390625,-0.6356682777404785,-1.3198528289794922,4.4890875816345215,9.511624023437502
1765999844336881700,12.526881591796876,-1.134063482284546,-0.9349870681762696,5.118066787719727,9.530403076171876
1765999844355660800,12.545660888671875,-3.560554027557373,-3.146869659423828,3.400761604309082,9.549182373046875
1765999844374440000,12.56443994140625,-0.907280445098877,-4.331760406494141,-2.154188394546509,9.567961425781252
1765999844393219000,12.583218994140625,-4.356651306152344,3.403116226196289,-3.331153392791748,9.586740478515626
1765999844411998200,12.601998291015626,-0.9418501257896424,0.6201152801513672,0.1902180910110473,9.605519775390626
1765999844430777300,12.62077734375,-2.391984462738037,-4.076116561889648,-1.674851894378662,9.624298828125
1765999844449556500,12.639556396484377,-1.2107317447662354,-1.0895919799804688,-4.568089485168457,9.643077880859376
1765999844468335600,12.658335693359374,-1.5833489894866943,-0.3324270248413086,0.0059187412261962,9.661857177734376
1765999844487114800,12.67711474609375,-2.5191822052001958,-2.360194683074951,1.001502275466919,9.68063623046875
1765999844505894000,12.695893798828124,-2.511932849884033,-2.427549362182617,-0.7505933046340942,9.699415283203123
1765999844524673000,12.714673095703125,-2.189899206161499,-1.778132438659668,-1.349406123161316,9.718194580078126
1765999844543452200,12.7334521484375,-2.7248454093933105,-2.091049671173096,-0.787529468536377,9.7369736328125
1765999844562231300,12.752231201171876,-3.082074880599976,-2.566567897796631,-0.3678154349327087,9.755752685546877
1765999844581010400,12.771010498046875,-3.084709405899048,-2.711091995239258,-0.3464551568031311,9.774531982421877
1765999844599789600,12.78978955078125,-3.1383841037750244,-2.809755325317383,-0.3188119530677795,9.79331103515625
1765999844618568700,12.808568603515624,-2.954468011856079,-3.301079273223877,-0.903704047203064,9.812090087890624
1765999844637347800,12.827347900390626,-2.710628032684326,-3.7921743392944336,-1.2611632347106934,9.830869384765627
1765999844665516500,12.8555166015625,-2.596257448196411,-3.418689250946045,-1.0075315237045288,9.859038085937502
1765999844684295700,12.874295654296876,-2.5432779788970947,-2.707500457763672,-0.7555206418037415,9.877817138671876
1765999844703074800,12.89307470703125,-2.426025629043579,-2.0894651412963867,-0.5838215351104736,9.89659619140625
1765999844721854200,12.911854248046875,-2.4689087867736816,-1.50311279296875,-0.5973782539367676,9.915375732421875
1765999844740633300,12.93063330078125,-2.0767641067504883,-1.1728520393371582,-1.5421717166900637,9.934154785156252
1765999844759412500,12.94941259765625,-1.7165207862854004,-1.4541559219360352,-1.8802239894866943,9.952934082031252
1765999844778191600,12.968191650390626,-1.7986960411071775,-1.9111113548278809,-1.382854700088501,9.971713134765626
1765999844796970800,12.986970703125,-1.962883472442627,-2.2231225967407227,-0.6817681789398193,9.9904921875
1765999844815750000,13.00575,-2.1197195053100586,-2.150505542755127,0.6096829175949097,10.009271484375002
1765999844834529000,13.024529052734374,-2.405226707458496,-1.2980670928955078,1.7891199588775637,10.028050537109376
1765999844853308200,13.04330810546875,-2.6946663856506348,-0.254861831665039,1.981493353843689,10.04682958984375
1765999844872087300,13.06208740234375,-2.482873916625977,0.1387977600097656,2.030573606491089,10.06560888671875
1765999844890866400,13.080866455078125,-2.135063648223877,-0.0045661926269531,2.213371515274048,10.084387939453126
1765999844909645600,13.0996455078125,-2.074920654296875,0.183753490447998,1.8932709693908687,10.1031669921875
1765999844928424700,13.1184248046875,-1.599598407745361,2.3482203483581543,2.760756731033325,10.1219462890625
