time,seconds_elapsed,z,y,x,t
1765999842900277000,11.090277099609375,-3.177107810974121,1.0672571659088137,-4.601720809936523,8.084408935546875
1765999842919056400,11.109056396484377,-2.8956518173217773,-0.2381609082221985,-5.109960079193115,8.103188232421877
1765999842937835300,11.127835205078124,-1.680947184562683,-3.080056667327881,-3.448713541030884,8.121967041015624
1765999842956614400,11.146614501953126,-0.3029889166355133,-0.9624938368797302,-4.6044697761535645,8.140746337890626
1765999842975393800,11.165393798828124,1.1145228147506714,-2.6257259845733643,-3.624489784240722,8.159525634765624
1765999842994172700,11.184172607421877,0.916602611541748,-3.279198408126831,-2.971933603286743,8.178304443359377
1765999843012952000,11.2029521484375,0.9103412628173828,-2.3520584106445312,-2.769431829452514,8.197083984375
1765999843031731000,11.22173095703125,1.1849249601364136,-0.7801506519317627,-2.303647518157959,8.21586279296875
1765999843050510300,11.24051025390625,1.0378592014312744,-0.2289979308843612,-1.4983749389648438,8.23464208984375
1765999843069289500,11.25928955078125,0.9770781993865968,-0.1300378441810608,-0.9172898530960084,8.25342138671875
1765999843088068600,11.278068603515624,1.082452416419983,-0.2468657344579696,-0.3705658614635467,8.272200439453124
1765999843106847700,11.29684765625,1.0975712537765503,-0.5141190886497498,0.167300596833229,8.2909794921875
1765999843125627000,11.315626953125,1.092989802360535,-0.4841867089271545,0.603458046913147,8.3097587890625
1765999843144406000,11.334406005859377,1.124754786491394,-0.283975750207901,0.9585232138633728,8.328537841796877
1765999843163185200,11.35318505859375,1.136055827140808,-0.1703549176454544,1.2709804773330688,8.34731689453125
1765999843181964300,11.37196435546875,1.1369720697402954,-0.0681877806782722,1.4913500547409058,8.36609619140625
1765999843200743400,11.390743408203123,1.1421644687652588,0.1132390573620796,1.6358195543289185,8.384875244140623
1765999843219522600,11.4095224609375,1.1174243688583374,0.1897498667240142,1.715537428855896,8.403654296875
1765999843238301700,11.4283017578125,1.0772600173950195,0.1526398360729217,1.7495931386947632,8.42243359375
1765999843257080800,11.447080810546876,1.0236566066741943,0.1434768587350845,1.746233344078064,8.441212646484376
1765999843275860000,11.46585986328125,0.93813556432724,0.1007163301110267,1.7075961828231812,8.45999169921875
1765999843294639000,11.48463916015625,0.8287907838821411,0.0119882216677069,1.6411645412445068,8.47877099609375
1765999843313418200,11.503418212890624,0.6944005489349365,-0.0347429327666759,1.5632792711257937,8.497550048828124
1765999843332197400,11.522197265625,0.5418370366096497,0.0032833982259035,1.477758288383484,8.5163291015625
1765999843350976500,11.5409765625,0.3819431960582733,0.176005408167839,1.3708568811416626,8.5351083984375
1765999843369755600,11.559755615234376,0.2156352698802948,0.3769799172878265,1.2030218839645386,8.553887451171876
1765999843388534800,11.57853466796875,0.0256563201546669,0.6779835224151611,0.9962440729141236,8.57266650390625
1765999843407314000,11.59731396484375,-0.1834121495485305,0.9460004568099976,0.6514109373092651,8.59144580078125
1765999843426093000,11.616093017578123,-0.3921751976013183,1.262733817100525,-0.0530688762664794,8.610224853515623
1765999843444872200,11.6348720703125,-0.7965676784515381,1.6538400650024414,-0.9563851952552797,8.62900390625
1765999843463651300,11.6536513671875,-0.8381064534187317,1.462333917617798,-1.2602903842926023,8.647783203125
1765999843482430500,11.672430419921875,-0.1067486181855201,0.5296961069107056,-0.9466113448143004,8.666562255859375
1765999843501209600,11.691209716796877,0.3408625423908233,-0.4701367914676666,-0.7212022542953491,8.685341552734377
1765999843519988700,11.70998876953125,0.0531452372670173,-0.8022945523262024,-0.4889208972454071,8.70412060546875
1765999843538768000,11.728767822265626,-0.1030834317207336,-0.464944452047348,-0.3870591819286346,8.722899658203126
1765999843557547000,11.747547119140624,-0.0849102064967155,0.1359937787055969,-0.3371210098266601,8.741678955078124
1765999843576326100,11.766326171875,0.0749836489558219,0.4753291606903076,-0.2903898358345032,8.7604580078125
1765999843595105300,11.785105224609374,0.1186604797840118,0.2528216540813446,-0.2677878439426422,8.779237060546874
1765999843613884400,11.803884521484376,0.0551305450499057,-0.1611919403076172,-0.2687041461467743,8.798016357421876
1765999843642053000,11.83205322265625,0.040469791740179,-0.4554760456085205,-0.2832121849060058,8.82618505859375
1765999843660832300,11.850832275390625,0.0171042140573263,-0.3720930218696594,-0.3059668838977813,8.844964111328125
1765999843679611400,11.869611328125,-0.0555886961519718,-0.1731038093566894,-0.3323867917060852,8.8637431640625
1765999843698390500,11.888390625,-0.0960584878921508,-0.0034361144062131,-0.3554469347000122,8.8825224609375
1765999843717169700,11.907169677734377,-0.1189659163355827,0.1191949918866157,-0.3934732675552368,8.901301513671877
1765999843735948800,11.92594873046875,-0.1695149689912796,0.2079230993986129,-0.4093557596206665,8.92008056640625
1765999843754728000,11.94472802734375,-0.2072358727455139,0.2682459950447082,-0.4310414493083954,8.93885986328125
1765999843773507000,11.963507080078124,-0.2605338394641876,0.3180314898490906,-0.4525744318962097,8.957638916015624
1765999843792286200,11.9822861328125,-0.3081812858581543,0.4001927971839905,-0.4698313772678375,8.97641796875
1765999843820455000,12.010454833984374,-0.3145953714847564,0.4814378023147583,-0.4224893450736999,9.004586669921874
1765999843839234300,12.029234375,-0.2461785078048706,0.5179370045661926,-0.3400225937366485,9.0233662109375
1765999843858013400,12.048013427734375,-0.1957821547985077,0.3165042996406555,-0.2244164496660232,9.042145263671875
1765999843876792600,12.06679248046875,-0.1401934623718261,-0.0217620581388473,-0.0933859497308731,9.06092431640625
1765999843895571700,12.08557177734375,-0.065515249967575,-0.4157698452472687,0.0148898288607597,9.07970361328125
1765999843914350800,12.104350830078126,-0.0354301556944847,-0.6207149624824524,0.0874300226569175,9.098482666015625
1765999843933130000,12.1231298828125,-0.0557414107024669,-0.6272817850112915,0.1228601783514022,9.11726171875
1765999843951909000,12.1419091796875,-0.0687222853302955,-0.5402335524559021,0.151112675666809,9.136041015625
1765999843970688300,12.160688232421874,-0.0609337612986564,-0.4661661982536316,0.1935677826404571,9.154820068359374
1765999843989467400,12.17946728515625,-0.0381790474057197,-0.4253909587860107,0.2690095901489258,9.17359912109375
1765999844008246500,12.19824658203125,0.0148134706541895,-0.3374264240264892,0.3956113159656524,9.192378417968749
1765999844027025700,12.217025634765625,0.1102610900998115,-0.2265544682741165,0.5831468105316162,9.211157470703125
1765999844045804800,12.2358046875,0.2373209595680236,-0.0553596206009388,0.8378773927688599,9.2299365234375
1765999844064584000,12.254583984375,0.4247037470340729,0.0345902182161808,1.126205563545227,9.2487158203125
1765999844083363000,12.273363037109377,0.6281217336654663,0.0461966507136821,1.3758965730667114,9.267494873046877
1765999844102142200,12.29214208984375,0.785877525806427,-0.0981201529502868,1.5284600257873535,9.28627392578125
1765999844120921300,12.31092138671875,0.831997811794281,-0.3760636150836944,1.5945861339569092,9.30505322265625
1765999844139700500,12.329700439453124,0.7806851863861084,-0.4777726233005523,1.5373176336288452,9.323832275390624
1765999844158479600,12.348479736328123,0.6925679445266724,-0.2343430072069168,1.338786482810974,9.342611572265623
1765999844177259000,12.367259033203124,0.8747583627700806,-0.174172818660736,1.113224744796753,9.361390869140624
1765999844196038000,12.386037841796876,1.308014154434204,-0.4866301417350769,0.7714458703994751,9.380169677734376
1765999844214817300,12.4048173828125,1.6807944774627686,-0.8206204771995544,0.307494044303894,9.39894921875
1765999844233596200,12.42359619140625,1.8400774002075195,-1.4852412939071655,-0.3191004991531372,9.41772802734375
1765999844252375600,12.44237548828125,1.9871431589126587,-2.1768929958343506,-1.034270405769348,9.43650732421875
1765999844271154400,12.461154541015626,2.134361505508423,-2.605567455291748,-1.6813288927078247,9.455286376953126
1765999844289933800,12.479933837890623,2.1981968879699707,-2.616868257522583,-2.267911911010742,9.474065673828123
1765999844308713000,12.498712890625,2.140164852142334,-2.2130868434906006,-2.680856466293335,9.4928447265625
1765999844327492000,12.5174921875,1.9139920473098757,-1.9175808429718015,-2.907334566116333,9.5116240234375
1765999844346271200,12.536271240234376,1.5502220392227173,-1.8054871559143064,-2.8355579376220703,9.530403076171876
1765999844365050400,12.55505029296875,0.4573850035667419,-1.747760534286499,-1.2974004745483398,9.54918212890625
1765999844383829500,12.57382958984375,-0.7742711305618286,0.5341249108314514,-1.2508219480514526,9.56796142578125
1765999844402608600,12.592608642578124,-0.1430950760841369,0.6735547780990601,-1.6810234785079956,9.586740478515624
1765999844421387800,12.6113876953125,0.2945895493030548,0.4026362597942352,-1.4220168590545654,9.60551953125
1765999844440167000,12.6301669921875,-0.3665188550949096,0.9226348996162416,-0.8458186388015747,9.624298828125
1765999844458946000,12.648946044921876,-0.5068650245666504,0.8276454210281372,-0.386601060628891,9.643077880859376
1765999844477725200,12.66772509765625,-0.4787652790546417,0.9198859930038452,-0.1117118969559669,9.66185693359375
1765999844496504300,12.68650439453125,-0.5267181396484375,1.4214060306549072,0.2285397797822952,9.68063623046875
1765999844515283500,12.705283447265623,-0.5426006317138672,1.611995816230774,0.6153699159622192,9.699415283203123
1765999844534062600,12.7240625,-0.500298261642456,1.5292235612869265,1.0225112438201904,9.7181943359375
1765999844552841700,12.742841796875,-0.5535961985588074,1.643913507461548,1.317253589630127,9.7369736328125
1765999844571620900,12.761620849609375,-0.5800161361694336,1.8574106693267824,1.5808416604995728,9.755752685546875
1765999844590400000,12.78039990234375,-0.5048797130584717,1.9409464597702024,1.8196898698806765,9.774531738281249
1765999844609179100,12.79917919921875,-0.4586067199707031,1.866268277168274,1.977445602416992,9.79331103515625
1765999844627958300,12.817958251953126,-0.435241162776947,1.6440662145614624,2.080681800842285,9.812090087890626
1765999844646737400,12.8367373046875,-0.4021017551422119,1.293582558631897,2.1487932205200195,9.830869140625
1765999844674906000,12.864906005859376,-0.3552178740501404,0.8969785571098328,2.1662027835845947,9.859037841796876
1765999844693685200,12.883685302734374,-0.3087921440601349,0.6787471175193787,2.158108949661255,9.877817138671874
1765999844712464400,12.90246435546875,-0.2707658112049103,0.3824777007102966,2.142226457595825,9.89659619140625
1765999844731243800,12.921243896484375,-0.2513708472251892,-0.0432950407266616,2.09167742729187,9.915375732421875
1765999844750023000,12.94002294921875,-0.1815795600414276,-0.4588358104228973,1.9832488298416135,9.93415478515625
1765999844768802000,12.958802001953124,-0.1722638607025146,-1.019304275512695,1.8294636011123655,9.952933837890624
1765999844787581200,12.977581298828126,-0.2985601723194122,-1.397429585456848,1.6620867252349854,9.971713134765626
1765999844806360300,12.9963603515625,-0.5244274139404297,-1.431943416595459,1.4954733848571775,9.9904921875
1765999844834529000,13.024529052734374,-0.8756746649742126,-0.9525672793388368,1.1853067874908447,10.018660888671874
1765999844853308200,13.04330810546875,-1.058781385421753,-0.3494910001754761,0.8337540626525879,10.03743994140625
1765999844872087300,13.06208740234375,-1.1673625707626345,0.0981201529502868,0.4180605709552765,10.05621923828125
1765999844890866400,13.080866455078125,-1.3028218746185305,0.367511510848999,-0.0016035200096666,10.074998291015625
1765999844909645600,13.0996455078125,-1.3822343349456787,0.4886154532432556,-0.3006218373775482,10.09377734375
1765999844928424700,13.1184248046875,-1.4860812425613403,1.266093611717224,-0.6272817850112915,10.112556640625
