time,seconds_elapsed,z,y,x,t
1765999834806478600,2.996478515625,-1.7872939109802246,-5.216574192047119,0.1293326616287231,0.0
1765999834825257700,3.0152578125,-2.198625087738037,-4.629176616668701,-1.657954216003418,0.018779296875000018
1765999834844036900,3.034036865234375,-2.4650278091430664,-5.4582624435424805,-1.4810388088226318,0.03755834960937543
1765999834862816000,3.05281591796875,-2.5511507987976074,-7.062376499176025,-0.8096636533737183,0.0563374023437504
1765999834881595100,3.07159521484375,-2.3734335899353027,-7.839831352233887,-0.6780949831008911,0.07511669921875042
1765999834900374000,3.0903740234375,-2.242138624191284,-7.624595642089844,-0.3245302438735962,0.09389550781250033
1765999834919153200,3.109153076171875,-2.3627114295959477,-6.810039520263672,-0.2078543901443481,0.1126745605468753
1765999834937932300,3.127932373046875,-2.430203676223755,-5.781865119934082,-0.0331965684890747,0.13145385742187532
1765999834956711400,3.14671142578125,-2.0856285095214844,-4.890172004699707,0.5338500738143921,0.1502329101562503
1765999834975490600,3.165490478515625,-2.034697294235229,-3.7575979232788086,0.4601119756698608,0.16901196289062526
1765999834994269700,3.184269775390625,-2.08171820640564,-2.3875231742858887,-0.1103160977363586,0.18779125976562527
1765999835013048800,3.203048828125,-1.838548183441162,-1.3886985778808594,0.0901382565498352,0.20657031250000024
1765999835031827700,3.22182763671875,-1.593031883239746,-1.0018930435180664,0.5024448037147522,0.22534912109375016
1765999835050606800,3.24060693359375,-1.3981056213378906,-0.3618288040161133,0.6767714023590088,0.24412841796875018
1765999835069386000,3.259385986328125,-0.9915456771850586,0.2175188064575195,0.3426579236984253,0.26290747070312515
1765999835088165000,3.2781650390625,-0.8172621726989746,0.5768222808837891,0.2753104865550995,0.2816865234375001
1765999835106944300,3.2969443359375,-1.3341679573059082,0.9820947647094728,0.2107698321342468,0.30046582031250013
1765999835135113000,3.325113037109375,-1.0938196182250977,0.6564083099365234,-0.2542127072811126,0.32863452148437533
1765999835153891800,3.343891845703125,-0.7280106544494629,0.4283771514892578,0.5034194588661194,0.34741333007812525
1765999835172671000,3.3626708984375,-0.8272829055786133,0.534393310546875,1.4680900573730469,0.3661923828125002
1765999835191450000,3.3814501953125,-1.3249859809875488,0.9290332794189452,2.390211343765259,0.38497167968750023
1765999835210229200,3.400229248046875,-1.713240623474121,1.432969093322754,2.7448177337646484,0.4037507324218752
1765999835229008400,3.41900830078125,-1.0729384422302246,2.983488082885742,2.516071319580078,0.42252978515625017
1765999835247787500,3.43778759765625,0.3809616565704345,5.616557121276856,1.650705099105835,0.4413090820312502
1765999835266566700,3.456566650390625,1.1642448902130127,5.719529151916504,0.3139455914497375,0.46008813476562516
1765999835285345500,3.475345458984375,2.49530029296875,3.9017372131347656,-2.615293264389038,0.4788669433593751
1765999835304124700,3.494124755859375,2.867490768432617,3.044743537902832,-6.661631107330322,0.4976462402343751
1765999835322903800,3.51290380859375,0.4635965824127197,3.0012636184692383,-5.795453786849976,0.5164252929687501
1765999835341683000,3.531682861328125,-0.1571342945098877,2.899937629699707,-8.534406661987305,0.535204345703125
1765999835360462000,3.550462158203125,2.0400235652923584,0.2722682952880859,-4.929276466369629,0.553983642578125
1765999835379241200,3.5692412109375,3.2610971927642822,-2.545419216156006,0.2100560069084167,0.5727626953125
1765999835398020400,3.588020263671875,2.4717109203338623,-2.5561227798461914,3.9384031295776367,0.5915417480468754
1765999835416799200,3.60679931640625,1.4915872812271118,-0.6452970504760742,4.65454626083374,0.6103208007812504
1765999835435578400,3.625578369140625,0.3333404064178467,0.9702320098876952,3.486634969711304,0.6290998535156254
1765999835454357500,3.644357421875,0.137808084487915,1.2622032165527344,0.8011760711669922,0.6478789062500003
1765999835473136600,3.66313671875,0.9315289258956908,0.9954996109008788,-0.3112741112709045,0.6666582031250003
1765999835491915800,3.681915771484375,1.6841919422149658,0.3797330856323242,-0.2909857928752899,0.6854372558593753
1765999835510695000,3.70069482421875,1.8864107131958008,-0.0170230865478515,0.1418792009353637,0.7042163085937503
1765999835538863400,3.72886328125,1.7051112651824951,-0.0049161911010742,0.7704901695251465,0.7323847656250004
1765999835557642500,3.747642578125,1.4549200534820557,-0.036081314086914,1.022444725036621,0.7511640625
1765999835576421600,3.766421630859375,1.2724238634109497,-0.0718345642089843,0.5808367729187012,0.7699431152343754
1765999835595200800,3.78520068359375,1.1098320484161377,-0.2058095932006836,-0.1906507015228271,0.7887221679687504
1765999835613980000,3.80397998046875,1.6273434162139893,-0.2021217346191406,-1.0267908573150637,0.8075014648437504
1765999835632759000,3.822759033203125,2.5325939655303955,-0.121800422668457,-1.6048271656036377,0.8262805175781254
1765999835651538200,3.8415380859375,3.641757249832153,0.0235700607299804,-1.6825988292694092,0.8450595703125003
1765999835670317300,3.8603173828125,4.573288917541504,0.1828746795654297,-1.8025134801864624,0.8638388671875004
1765999835689096200,3.87909619140625,5.118370532989502,0.476175308227539,-2.4984912872314453,0.8826176757812503
1765999835707875300,3.897875244140625,5.393660545349121,0.7050561904907227,-3.748307228088379,0.9013967285156252
1765999835726654500,3.916654541015625,4.280595779418945,1.4111404418945312,-5.221059322357178,0.9201760253906253
1765999835745433600,3.93543359375,2.749091863632202,1.889704704284668,-5.0975260734558105,0.9389550781250002
1765999835773602300,3.963602294921875,0.7946803569793701,2.792935371398926,-2.1564478874206543,0.9671237792968754
1765999835792381400,3.98238134765625,-0.4976317882537842,3.389961242675781,-0.0196757912635803,0.9859028320312504
1765999835811160300,4.001160400390625,-0.5232572555541992,3.829874038696289,1.0674173831939695,1.0046818847656254
1765999835829939500,4.019939453125,0.3646059036254883,3.322209358215332,1.2455432415008545,1.0234609375
1765999835858108200,4.048108154296875,-0.550379753112793,2.489343643188477,0.5164589881896973,1.051629638671875
1765999835876887300,4.06688720703125,-0.7583861351013184,2.364712715148926,-0.6880849599838257,1.0704086914062505
1765999835895666400,4.08566650390625,-1.1113476753234863,1.3834991455078125,-0.0224687904119491,1.08918798828125
1765999835914445600,4.104445556640625,-1.5821428298950195,-0.2034406661987304,1.473706603050232,1.1079670410156255
1765999835933224400,4.123224365234375,-1.6835341453552246,-0.9909439086914062,2.5563690662384038,1.126745849609375
1765999835952003600,4.142003662109375,-1.2708680629730225,-0.9229402542114258,3.7721705436706543,1.1455251464843759
1765999835970782700,4.16078271484375,-1.2399954795837402,-0.8090934753417969,5.075000762939453,1.1643041992187504
1765999835989561900,4.179561767578125,-0.9478704929351808,-0.8216352462768555,4.133918285369873,1.1830832519531258
1765999836008341000,4.198341064453125,-0.9660366773605348,-0.3367795944213867,1.117882490158081,1.2018625488281254
1765999836027120000,4.2171201171875,-0.5486577749252319,0.272979736328125,-1.0039329528808594,1.2206416015625008
1765999836045899300,4.235899169921875,-4.517085075378418,-1.0175895690917969,-1.1346321105957031,1.2394206542968753
1765999836064678100,4.25467822265625,-2.16864013671875,-5.007273674011231,-6.016037464141846,1.2581997070312507
1765999836083457300,4.273457275390625,-1.8146631717681885,4.622868537902832,-1.9804553985595703,1.2769787597656252
1765999836102236400,4.292236328125,0.3321735262870788,1.4124727249145508,3.1968069076538086,1.2957578125000007
1765999836121015600,4.311015625,-0.6705529689788818,-1.2063055038452148,0.4551903009414673,1.3145371093750002
1765999836139794700,4.329794677734375,-1.1286417245864868,0.2782278060913086,0.6825436949729919,1.3333161621093756
1765999836158573800,4.34857373046875,-2.2556610107421875,-1.0996589660644531,2.361557483673096,1.352095214843751
1765999836177353000,4.36735302734375,-2.90022873878479,-2.458913326263428,1.8159159421920776,1.3708745117187506
1765999836196131800,4.3861318359375,-2.849337339401245,-2.3203325271606445,0.0859018266201019,1.389653320312501
1765999836214911000,4.404910888671875,-2.8677749633789062,-1.9275503158569336,-0.9312980771064758,1.4084323730468755
1765999836233690000,4.423690185546875,-3.124659299850464,-2.503336906433105,-0.6107743978500366,1.427211669921876
1765999836252469200,4.44246923828125,-3.239443063735962,-3.271996021270752,-0.5999330282211304,1.4459907226562505
1765999836271248400,4.461248291015625,-3.114980936050415,-3.4308905601501465,-0.7491986751556396,1.464769775390626
1765999836290027500,4.480027587890625,-3.040586471557617,-3.3223862648010254,-0.8051233291625977,1.4835490722656255
1765999836308806700,4.498806640625,-2.8128836154937744,-3.383707046508789,-0.5210343599319458,1.502328125000001
1765999836327585500,4.51758544921875,-2.6174793243408203,-3.393872737884521,-0.2509988844394684,1.5211069335937504
1765999836346364700,4.53636474609375,-2.754980564117432,-3.037451267242432,-0.1104042083024978,1.5398862304687508
1765999836365143800,4.555143798828125,-2.7644295692443848,-2.4086813926696777,-0.2828590869903564,1.5586652832031254
1765999836383923000,4.5739228515625,-2.618639707565308,-1.938432693481445,-0.4007280170917511,1.5774443359375008
1765999836412091600,4.602091552734375,-2.4581706523895264,-1.797191143035889,-0.6432610154151917,1.605613037109376
1765999836430870500,4.62087060546875,-2.408003568649292,-2.0112853050231934,-0.6219473481178284,1.6243920898437505
1765999836449649700,4.639649658203125,-2.37300968170166,-2.059480667114258,-0.6115908026695251,1.643171142578126
1765999836468428800,4.6584287109375,-2.2542946338653564,-1.6143999099731443,-0.651962399482727,1.6619501953125004
1765999836487208000,4.6772080078125,-2.1414928436279297,-1.0803356170654297,-0.8007163405418396,1.680729492187501
1765999836505987000,4.695987060546875,-2.099627017974853,-0.8213281631469727,-0.6113550066947937,1.6995085449218754
1765999836524766200,4.71476611328125,-1.954298496246338,-1.0076022148132324,-0.5089654326438904,1.7182875976562508
1765999836543545300,4.73354541015625,-1.9872732162475584,-0.9037599563598632,-0.3044794797897339,1.7370668945312504
1765999836562324200,4.75232421875,-2.072399139404297,-0.5243411064147949,-0.0755078196525573,1.7558457031250008
1765999836581103400,4.771103271484375,-1.785952091217041,0.2479333877563476,0.1154809594154357,1.7746247558593753
1765999836599882500,4.789882568359375,-1.39436674118042,0.9656000137329102,0.0182016491889953,1.7934040527343758
1765999836618661600,4.80866162109375,-1.2716593742370603,1.5246596336364746,-0.3305431604385376,1.8121831054687503
1765999836637440800,4.827440673828125,-1.2460942268371582,1.6126484870910645,-0.4656676650047302,1.8309621582031257
1765999836656220000,4.846219970703125,-0.9311308860778807,1.344144344329834,-0.4569514393806457,1.8497414550781253
1765999836674999000,4.8649990234375,-0.5120325088500977,1.099414348602295,-0.149843156337738,1.8685205078125007
1765999836693778000,4.88377783203125,-0.2235002517700195,1.2990212440490725,0.3139111995697021,1.887299316406251
1765999836712557000,4.90255712890625,-0.0580000877380371,1.481281280517578,0.9530646800994872,1.9060786132812506
1765999836731336200,4.921336181640625,0.025054931640625,1.36838960647583,1.5734648704528809,1.924857666015626
1765999836750115300,4.940115234375,0.5462756156921387,1.2565441131591797,2.1231985092163086,1.9436367187500005
1765999836768894500,4.95889453125,0.6411418914794922,1.214961051940918,2.639477014541626,1.962416015625001
1765999836787673600,4.977673583984375,0.2133083343505859,1.231004238128662,2.1471636295318604,1.9811950683593755
1765999836815842300,5.00584228515625,2.1751022338867188,4.035459518432617,2.6537206172943115,2.0093637695312507
1765999836834621400,5.024621337890625,4.878940105438232,4.236310005187988,2.091882467269897,2.0281428222656253
1765999836853400300,5.043400390625,3.8120150566101074,4.402338027954102,-0.6987277865409851,2.0469218750000007
