time,seconds_elapsed,z,y,x,t
1765999851041042400,19.23104248046875,5.665331840515137,3.8707141876220703,-4.544641494750977,16.23456396484375
1765999851059821600,19.249821533203125,3.492758274078369,4.324674606323242,-2.3902316093444824,16.253343017578125
1765999851078600700,19.2686005859375,0.7215166091918945,4.017328262329102,0.1605994701385498,16.2721220703125
1765999851097379800,19.2873798828125,-1.8635449409484863,3.2888545989990234,1.7085713148117063,16.290901367187498
1765999851116159000,19.306158935546875,-3.575258731842041,2.055257797241211,1.892048001289368,16.309680419921875
1765999851134938400,19.3249384765625,-4.226829528808594,1.277634620666504,2.0487077236175537,16.3284599609375
1765999851153717500,19.343717529296875,-3.265026092529297,2.019155502319336,2.5552899837493896,16.347239013671874
1765999851172496600,19.36249658203125,-1.1462888717651367,1.578669548034668,2.1948726177215576,16.366018066406248
1765999851191275800,19.38127587890625,-1.6485488414764404,0.0665521621704101,2.7942471504211426,16.38479736328125
1765999851210055000,19.400054931640625,-1.0055077075958252,-0.1080026626586914,2.0756428241729736,16.403576416015625
1765999851228834000,19.418833984375,-8.047477722167969,-3.4064669609069824,2.105701446533203,16.42235546875
1765999851247613200,19.43761328125,-0.3405084609985351,-7.015190601348877,-1.4576482772827148,16.441134765625
1765999851266392600,19.456392578125,-1.2234575748443604,3.871753692626953,0.2582840919494629,16.4599140625
1765999851285171700,19.47517163085937,-1.3471002578735352,1.3867759704589844,0.127975583076477,16.47869311523437
1765999851303950800,19.49395092773437,-0.9630136489868164,-3.796966075897217,-2.088690996170044,16.49747241210937
1765999851322730000,19.51272998046875,-0.2215962409973144,-2.693495273590088,-1.1880300045013428,16.51625146484375
1765999851341509000,19.531509033203125,-1.4451289176940918,-2.338270664215088,0.8104032278060913,16.535030517578125
1765999851360288300,19.550288330078125,-1.8882291316986084,-3.406702995300293,1.0262645483016968,16.553809814453125
1765999851379067600,19.569067626953125,-1.7499775886535645,-3.6270265579223633,-0.297019362449646,16.572589111328124
1765999851397846800,19.5878466796875,-1.7079484462738037,-4.006230354309082,-0.7147057056427002,16.5913681640625
1765999851416626000,19.6066259765625,-2.2151992321014404,-4.556546211242676,-0.2638204097747803,16.6101474609375
1765999851435405000,19.625405029296875,-2.4317445755004883,-4.971513748168945,-0.1729683876037597,16.628926513671875
1765999851454184200,19.64418408203125,-2.365602970123291,-5.051815032958984,-0.1039789915084838,16.64770556640625
1765999851472963300,19.66296337890625,-2.31768798828125,-4.923947811126709,-0.3064762353897095,16.66648486328125
1765999851491742500,19.681742431640625,-2.1639132499694824,-4.6602983474731445,-0.5228557586669922,16.685263916015625
1765999851510521900,19.70052197265625,-2.0314557552337646,-4.402532577514648,-0.7241600751876831,16.70404345703125
1765999851529301000,19.719301025390624,-2.004846572875977,-3.938733100891113,-0.866529643535614,16.722822509765624
1765999851548080000,19.738080078125,-2.1031436920166016,-3.23488998413086,-0.7848386764526367,16.7416015625
1765999851566859300,19.756859375,-2.347288131713867,-2.6276111602783203,-0.9952473044395448,16.760380859375
1765999851585638400,19.77563842773437,-2.182459831237793,-2.11987829208374,-0.9457128047943116,16.77915991210937
1765999851604417500,19.79441748046875,-1.944657325744629,-1.3153586387634275,-0.8225951194763184,16.79793896484375
1765999851623196700,19.81319677734375,-1.7659282684326172,-0.8157196044921875,-0.8508164286613464,16.81671826171875
1765999851641976000,19.83197607421875,-1.781175136566162,-0.6111068725585938,-0.8446153402328491,16.83549755859375
1765999851660755200,19.850755126953125,-1.732757568359375,-0.4366841316223144,-0.4443811178207397,16.854276611328125
1765999851679534300,19.869534423828124,-1.834777355194092,-0.2005915641784668,0.1285534501075744,16.873055908203124
1765999851698313500,19.8883134765625,-1.815589904785156,-0.0980501174926757,0.4726455211639404,16.8918349609375
1765999851717092600,19.907092529296875,-1.8288984298706052,-0.153848648071289,1.2603226900100708,16.910614013671875
1765999851735871700,19.925871826171875,-2.2896227836608887,-0.4503026008605957,1.927996039390564,16.929393310546875
1765999851754651100,19.944651123046874,-1.849693298339844,0.5359411239624023,2.779510974884033,16.948172607421874
1765999851773430300,19.96343017578125,-1.619494915008545,5.115096569061279,2.183274984359741,16.96695166015625
1765999851792209400,19.98220947265625,0.0289459228515625,6.356296539306641,2.837258100509644,16.98573095703125
1765999851810988500,20.000988525390625,2.133843421936035,5.144534111022949,-0.9861739873886108,17.004510009765625
1765999851829767700,20.019767578125,2.4971728324890137,4.846548080444336,-3.8125054836273193,17.023289062499998
1765999851848547000,20.038547119140624,2.965972900390625,4.195208549499512,-4.721673965454102,17.042068603515624
1765999851867326200,20.057326171875,2.1748721599578857,3.089712142944336,-3.901608467102051,17.06084765625
1765999851886105300,20.07610522460937,0.4430115222930908,2.04201602935791,-2.743359327316284,17.07962670898437
1765999851904884500,20.09488452148437,-0.5180516242980957,1.0259513854980469,-1.1918456554412842,17.09840600585937
1765999851923663600,20.11366357421875,0.2817440032958984,0.3405847549438476,0.2953774631023407,17.11718505859375
1765999851942442800,20.13244287109375,1.142801284790039,-0.0530719757080078,0.9993223547935486,17.13596435546875
1765999851961222000,20.151221923828125,1.540180206298828,-0.5537881851196289,0.8058789968490601,17.154743408203124
1765999851989390800,20.179390869140622,1.7943168878555298,-0.5747203826904297,0.6637127995491028,17.182912353515622
1765999852008170000,20.198169921875,3.029135704040528,-0.0431604385375976,0.7475258708000183,17.20169140625
1765999852026949000,20.21694921875,3.572723627090454,0.8227329254150391,0.6099920272827148,17.220470703125
1765999852045728300,20.235728271484376,3.6552040576934814,1.113054275512695,-0.4480006694793701,17.239249755859376
1765999852064507400,20.25450732421875,4.449901103973389,0.878082275390625,-2.489227771759033,17.25802880859375
1765999852083286800,20.273286865234372,5.767131805419922,0.7754592895507812,-3.8159642219543457,17.27680834960937
1765999852102066000,20.29206591796875,6.282448768615723,1.1194429397583008,-4.404335498809815,17.29558740234375
1765999852120845000,20.31084497070313,6.184668064117432,1.717878341674805,-4.131414413452148,17.31436645507813
1765999852139624200,20.32962426757813,5.668701648712158,2.509698867797852,-3.9113171100616455,17.33314575195313
1765999852158403300,20.3484033203125,4.536442279815674,3.549410820007324,-4.367029190063477,17.3519248046875
1765999852177182500,20.36718237304688,2.7513012886047363,4.008199691772461,-4.041298389434815,17.37070385742188
1765999852195961900,20.3859619140625,1.10205340385437,3.63314151763916,-2.138554096221924,17.3894833984375
1765999852214741000,20.40474096679688,-0.6618738174438477,3.347161293029785,-0.3541892170906067,17.40826245117188
1765999852242909700,20.43290966796875,-3.7818102836608887,1.9374685287475584,1.0199686288833618,17.43643115234375
1765999852261688800,20.451688720703125,-4.225262641906738,0.8862466812133789,1.2222061157226562,17.455210205078124
1765999852280468000,20.470468017578124,-3.208942413330078,0.8979387283325195,1.9443917274475095,17.473989501953124
1765999852299247000,20.4892470703125,-2.123438835144043,1.6245613098144531,3.0129811763763428,17.4927685546875
1765999852318026500,20.508026611328123,-1.9999585151672363,0.8855266571044922,3.991326332092285,17.511548095703123
1765999852346195200,20.5361953125,-1.7883059978485107,0.3750524520874023,3.8530657291412354,17.539716796875
1765999852364974300,20.554974365234376,-5.43048906326294,-2.267594337463379,3.380408525466919,17.558495849609375
1765999852383753500,20.57375341796875,-1.6768336296081543,-6.4418463706970215,-2.064601182937622,17.57727490234375
1765999852402532600,20.59253271484375,-3.738585948944092,2.7456274032592773,-3.656338214874268,17.59605419921875
1765999852421312000,20.61131201171875,0.0154554843902587,3.310795783996582,-0.0436309576034545,17.61483349609375
1765999852440091100,20.63009106445313,-2.0505380630493164,-2.341996669769287,-1.1896851062774658,17.63361254882813
1765999852458870300,20.648870361328125,-1.6300448179244995,-1.7613348960876465,-4.178709030151367,17.652391845703125
1765999852477649400,20.6676494140625,-0.7316285371780396,-0.8404445648193359,-1.883947491645813,17.6711708984375
1765999852496428500,20.68642846679688,-1.197428584098816,-2.05020523071289,-0.5049203634262085,17.68994995117188
1765999852515207700,20.70520776367188,-1.371495008468628,-2.5913453102111816,-0.338918924331665,17.70872924804688
1765999852533987000,20.723987060546875,-1.022321105003357,-2.5106496810913086,1.0249717235565186,17.727508544921875
1765999852552766200,20.74276611328125,-1.6501245498657229,-2.734918594360352,1.8594940900802608,17.74628759765625
1765999852571545300,20.76154541015625,-2.438761711120605,-3.188960075378418,0.5607435703277588,17.765066894531248
1765999852609103600,20.799103515625,-2.734490394592285,-4.426141738891602,-1.386875867843628,17.802625
1765999852627882800,20.8178828125,-2.7155566215515137,-4.747474670410156,-1.139915943145752,17.821404296875
1765999852646662000,20.836661865234376,-2.664586544036865,-4.813945293426514,-0.2597113847732544,17.840183349609376
1765999852665441300,20.855441162109376,-2.552248477935791,-4.952909469604492,0.3020713329315185,17.858962646484375
1765999852684220400,20.87422045898437,-2.3976938724517822,-5.095351696014404,0.3905670642852783,17.87774194335937
1765999852702999600,20.89299951171875,-2.3820247650146484,-5.0082197189331055,0.2310547828674316,17.89652099609375
1765999852721778700,20.91177880859375,-2.3133256435394287,-4.7728271484375,-0.1342649459838867,17.915300292968748
1765999852749947600,20.93994775390625,-2.455765724182129,-3.7786927223205566,-0.3491303920745849,17.94346923828125
1765999852768726800,20.958726806640627,-2.466404438018799,-2.821617603302002,-0.3956178426742553,17.962248291015626
1765999852787506000,20.977505859375,-2.236281394958496,-2.324678897857666,-0.5839525461196899,17.98102734375
1765999852806285000,20.99628515625,-2.3987269401550293,-2.054263114929199,-0.7765148282051086,17.999806640625
1765999852825064200,21.015064208984374,-2.1010780334472656,-2.069321632385254,-0.610318660736084,18.018585693359373
1765999852843843300,21.03384326171875,-1.753324031829834,-1.277984619140625,0.1275033950805664,18.03736474609375
1765999852862622500,21.05262255859375,-1.4689335823059082,0.4319396018981933,0.4233571290969848,18.05614404296875
1765999852881401900,21.07140185546875,-1.564035415649414,1.1059870719909668,0.1998414993286132,18.07492333984375
1765999852900181000,21.090180908203124,-1.6914615631103516,0.5308151245117188,0.8823640942573547,18.093702392578123
1765999852918960000,21.108960205078127,-2.1685848236083984,-0.2772955894470215,2.3867902755737305,18.112481689453126
1765999852937739300,21.1277392578125,-2.802018642425537,-1.133501052856445,3.0987555980682373,18.1312607421875
1765999852956518400,21.146518310546877,-3.4258008003234863,-1.5633015632629397,3.0175769329071045,18.150039794921877
1765999852975297800,21.1652978515625,-3.8172144889831534,1.436329364776611,3.629214763641357,18.1688193359375
1765999852994077000,21.18407690429688,-1.859400749206543,11.11178493499756,4.797203063964844,18.18759838867188
1765999853012856000,21.20285595703125,0.9656968116760254,11.17037868499756,1.46555495262146,18.20637744140625
1765999853031635200,21.22163525390625,4.308870315551758,7.639791488647461,-4.896012783050537,18.22515673828125
1765999853050414300,21.240414306640623,6.132205963134766,4.897172927856445,-8.8950834274292,18.243935791015623
1765999853069193500,21.259193359375,4.40905237197876,3.068078994750977,-8.587287902832031,18.26271484375
1765999853087972900,21.277972900390623,1.5300798416137695,3.05043888092041,-5.833617687225342,18.281494384765622
