time,seconds_elapsed,z,y,x,t
1765999839858058200,8.048058349609375,-3.89490270614624,0.4220609664916992,2.480954170227051,5.051579833984376
1765999839876837400,8.06683740234375,-4.828022480010986,-0.2674684524536133,4.983513355255127,5.0703588867187515
1765999839895616500,8.085616455078124,-4.420246601104736,-1.0003690719604492,7.279257774353027,5.089137939453125
1765999839914395600,8.104395751953126,-4.5698561668396,-2.451051712036133,6.326564788818359,5.107917236328126
1765999839933174800,8.1231748046875,-3.93519139289856,-3.497056484222412,3.02872371673584,5.1266962890625
1765999839951953700,8.14195361328125,-3.2362637519836426,-3.8817567825317374,0.3087224960327148,5.145475097656251
1765999839970733000,8.160733154296874,-2.382842779159546,-3.804219245910645,-1.5150355100631714,5.164254638671875
1765999839989512000,8.179511962890626,-3.0734212398529053,-3.333319187164306,-3.721675395965576,5.183033447265626
1765999840008291000,8.198291015625,-3.871315479278565,-3.0983123779296875,-6.954214096069336,5.2018125
1765999840027070200,8.2170703125,-6.618424415588379,-4.1850996017456055,-6.690278053283691,5.220591796875001
1765999840045849300,8.235849365234374,-9.75144863128662,-4.158405303955078,-2.0466384887695312,5.239370849609375
1765999840064628500,8.25462841796875,0.278548002243042,-2.4781312942504883,3.008547782897949,5.25814990234375
1765999840083407600,8.27340771484375,6.894686698913574,5.308562278747559,7.947617530822754,5.27692919921875
1765999840102186800,8.292186767578125,8.147682189941406,11.510228157043455,5.338499069213867,5.295708251953125
1765999840120966000,8.3109658203125,2.6329331398010254,3.048121452331543,-3.5363099575042725,5.314487304687501
1765999840139745000,8.3297451171875,-0.3290594816207886,-3.360971450805664,-9.344324111938477,5.3332666015625
1765999840158524200,8.348524169921875,0.9169844388961792,-2.5336360931396484,-6.876510620117188,5.352045654296876
1765999840177303300,8.36730322265625,3.033047199249268,1.3039121627807615,-1.841596603393555,5.370824707031251
1765999840196082400,8.38608251953125,2.55334997177124,2.432058334350586,0.6734656095504761,5.389604003906251
1765999840214861600,8.404861572265625,0.8296966552734375,0.2820281982421875,1.497638702392578,5.408383056640626
1765999840233640700,8.423640625,-0.4113751649856567,-1.093968391418457,2.0036401748657227,5.4271621093750015
1765999840252419800,8.442419921875,-0.7039530277252197,-0.526637077331543,2.225860834121704,5.445941406250001
1765999840271199000,8.461198974609376,-0.4611953496932983,0.2467155456542968,1.5040206909179688,5.4647204589843765
1765999840289978000,8.47997802734375,-0.0641500949859619,-0.1017770767211914,0.2692747116088867,5.48349951171875
1765999840308757000,8.498757080078125,-0.0330971479415893,-0.3132619857788086,-0.3305470943450928,5.502278564453126
1765999840327536400,8.517536376953124,-0.4826253652572632,-0.0855884552001953,0.1426033973693847,5.521057861328125
1765999840346315300,8.536315185546876,-0.9457528591156006,-0.1227073669433593,0.6775106191635132,5.539836669921876
1765999840365094400,8.555094482421875,-1.016953945159912,-0.2730636596679687,0.888190507888794,5.558615966796876
1765999840383873500,8.57387353515625,-0.760170578956604,-0.1927728652954101,0.8183069229125977,5.577395019531251
1765999840402652700,8.592652587890624,-0.6292458772659302,-0.00384521484375,0.4309902191162109,5.596174072265625
1765999840421431800,8.611431884765626,0.0204942226409912,-0.0987443923950195,0.025730013847351,5.614953369140626
1765999840440211000,8.6302109375,0.4518693685531616,-0.0503139495849609,-0.3402053713798523,5.633732421875
1765999840458990000,8.648989990234375,0.5092923641204834,-0.0185918807983398,-0.3664100170135498,5.652511474609375
1765999840477769200,8.667769287109374,0.2484683990478515,-0.215829849243164,-0.2230167388916015,5.671290771484375
1765999840496548400,8.68654833984375,-0.3289973735809326,-0.3729763031005859,0.219718337059021,5.69006982421875
1765999840515327500,8.705327392578125,-0.9318830966949464,-0.2034444808959961,0.8468043804168701,5.708848876953126
1765999840534106600,8.724106689453125,-1.116115689277649,-0.1737470626831054,1.6852353811264038,5.727628173828125
1765999840552885800,8.7428857421875,-1.3237251043319702,-0.0992631912231445,2.32352352142334,5.746407226562501
1765999840571665000,8.761664794921876,-1.067846179008484,-0.1117191314697265,2.21238112449646,5.765186279296876
1765999840590444000,8.780444091796875,-0.7268309593200684,0.153848648071289,1.1694236993789673,5.783965576171876
1765999840609223200,8.79922314453125,0.3578912019729614,0.405339241027832,-0.0025638937950134,5.802744628906251
1765999840628002300,8.818002197265624,1.1419618129730225,0.4283390045166015,-0.5458755493164062,5.821523681640625
1765999840646781400,8.836781494140626,1.9668036699295044,0.0451717376708984,-0.9186053276062012,5.840302978515626
1765999840665560600,8.855560546875,2.555284023284912,0.3608102798461914,0.5861509442329407,5.85908203125
1765999840684339700,8.874339599609375,3.109106540679932,0.8400707244873047,1.2278923988342283,5.877861083984375
1765999840703118800,8.893118896484374,3.700660228729248,1.476335525512695,-0.0132183134555816,5.896640380859375
1765999840721898000,8.91189794921875,2.405362606048584,1.147016525268555,-3.741288423538208,5.91541943359375
1765999840740677000,8.930677001953125,-0.6569889783859253,0.8430280685424805,-6.798008441925049,5.934198486328126
1765999840759456000,8.9494560546875,-3.864365577697754,0.0300312042236328,-9.726581573486328,5.952977539062501
1765999840778235100,8.968235107421876,-5.3817949295043945,-0.74981689453125,-13.426992416381836,5.9717565917968765
1765999840797014300,8.98701416015625,-1.5177576541900637,-2.932246685028076,-13.254066467285156,5.99053564453125
1765999840815793400,9.00579345703125,-4.18388557434082,-4.591499328613281,-6.868007659912109,6.009314941406251
1765999840834572500,9.024572509765624,-6.583503723144531,-4.719917297363281,-0.596264123916626,6.028093994140625
1765999840853351700,9.0433515625,-6.674485206604004,-1.1471128463745115,9.667205810546877,6.0468730468750005
1765999840872130800,9.062130859375,-2.7495274543762207,1.4066781997680664,6.813477039337159,6.06565234375
1765999840890910000,9.080909912109377,-0.1827898025512695,-1.842204570770264,12.880667686462402,6.084431396484377
1765999840909689000,9.099689208984374,1.482515811920166,-1.3519816398620603,3.9597482681274414,6.103210693359375
1765999840928468200,9.11846826171875,3.1912221908569336,2.567888736724853,-1.065022110939026,6.1219897460937505
1765999840947247400,9.137247314453123,4.071786880493164,6.820403099060059,-3.71700382232666,6.140768798828124
1765999840966026500,9.156026611328125,5.673739910125732,6.120316505432129,-4.196611404418945,6.1595480957031254
1765999840984805600,9.1748056640625,5.671547889709473,4.448063850402832,-0.8835780620574951,6.178327148437501
1765999841003584800,9.193584716796876,4.364686012268066,5.084464073181152,1.0244346857070925,6.197106201171876
1765999841022364000,9.212364013671875,3.879459381103516,5.579283714294434,1.3132760524749756,6.215885498046876
1765999841041143000,9.23114306640625,2.9065845012664795,5.0847697257995605,0.8993473052978516,6.234664550781251
1765999841059922200,9.249922119140624,1.8910727500915527,4.415963172912598,0.0453228950500488,6.253443603515625
1765999841078701300,9.268701416015626,1.1124958992004397,4.203715324401856,-0.1023828983306884,6.272222900390626
1765999841097480400,9.28748046875,0.4547686576843261,3.999979972839356,0.6697689294815063,6.291001953125
1765999841116259600,9.306259521484376,0.2233767509460449,3.3626718521118164,1.9403202533721924,6.309781005859377
1765999841135038700,9.325038818359374,-0.5867342948913574,2.513127326965332,2.5564563274383545,6.328560302734375
1765999841153817900,9.34381787109375,-1.110019564628601,2.2047786712646484,1.9426188468933103,6.34733935546875
1765999841172597000,9.362596923828123,-1.6056122779846191,2.250638008117676,1.4700798988342283,6.366118408203124
1765999841191376100,9.381376220703125,-2.310627222061157,2.189800262451172,1.2197818756103516,6.384897705078125
1765999841210155000,9.400155029296876,-2.0684027671813965,1.7872419357299805,1.106379508972168,6.4036765136718765
1765999841228934400,9.418934326171875,-9.744783401489258,-0.5306329727172852,-0.8261554837226868,6.422455810546876
1765999841247713500,9.437713623046877,-5.778413772583008,1.9415054321289065,-3.060772657394409,6.441235107421877
1765999841266492400,9.456492431640624,-4.729063510894775,0.5455360412597656,1.6098501682281494,6.460013916015625
1765999841285271600,9.475271484375,-2.492360591888428,-2.84788179397583,3.5677084922790527,6.4787929687500005
1765999841304050700,9.49405078125,-2.144808530807495,0.0053377151489257,-2.016298770904541,6.497572265625
1765999841322829800,9.512829833984377,-4.686334133148193,1.3265743255615234,-5.110352516174316,6.516351318359377
1765999841341609000,9.53160888671875,-5.58043098449707,-2.368346691131592,-3.2027783393859863,6.535130371093751
1765999841360388000,9.55038818359375,-4.424413204193115,-3.0522565841674805,-0.1717389822006225,6.5539096679687505
1765999841379167200,9.569167236328123,-3.8923864364624015,-1.6014351844787598,0.4166982173919678,6.572688720703124
1765999841397946400,9.5879462890625,-4.2399678230285645,-1.191542148590088,-0.8833773136138916,6.591467773437501
1765999841416725500,9.6067255859375,-4.359957218170166,-2.036957263946533,-1.6515979766845703,6.610247070312501
1765999841435504600,9.625504638671876,-4.584525108337402,-2.4629220962524414,-1.8188252449035645,6.629026123046876
1765999841454283800,9.64428369140625,-4.797099113464356,-2.4449758529663086,-2.1218738555908203,6.64780517578125
1765999841473063000,9.66306298828125,-4.970118522644043,-2.4803948402404785,-1.7700761556625366,6.666584472656251
1765999841491842000,9.681842041015624,-5.230511665344238,-2.680583000183105,-0.9674748182296752,6.685363525390625
1765999841510621200,9.70062109375,-5.0614519119262695,-2.7538719177246094,0.2645410001277923,6.704142578125
1765999841529400300,9.719400390625,-4.76962423324585,-2.795506000518799,0.6353864669799805,6.722921875
1765999841548179500,9.738179443359376,-4.813318729400635,-2.862882137298584,0.1309704333543777,6.741700927734377
1765999841566958600,9.75695849609375,-4.928614139556885,-3.1340465545654297,-0.1149061918258667,6.760479980468751
1765999841585737700,9.77573779296875,-4.753187656402588,-3.245397090911865,-0.0081152319908142,6.77925927734375
1765999841604516900,9.794516845703123,-4.52794361114502,-2.7287464141845703,0.1065261363983154,6.798038330078124
1765999841623296000,9.8132958984375,-4.246493816375732,-1.927483081817627,-0.0850294828414917,6.816817382812501
1765999841642075100,9.8320751953125,-4.016736030578613,-1.200456619262695,0.0146909952163696,6.835596679687501
1765999841660854300,9.850854248046875,-3.760835886001587,-0.7145957946777344,0.166226327419281,6.854375732421876
1765999841679633400,9.86963330078125,-3.5359597206115723,-0.1571836471557617,0.1153676509857177,6.87315478515625
1765999841698412500,9.88841259765625,-2.9740958213806152,0.5261564254760742,-0.0997345447540283,6.891934082031251
1765999841717191700,9.907191650390626,-2.434292793273926,0.9769058227539062,-0.1580593585968017,6.9107131347656265
1765999841735970800,9.925970703125,-1.9910593032836916,0.8701667785644531,0.2208859920501709,6.9294921875
1765999841754750000,9.94475,-1.8192214965820312,0.6624383926391602,0.8749671578407288,6.9482714843750015
1765999841773529000,9.963529052734376,-1.6644949913024902,0.7817339897155762,1.68241548538208,6.967050537109377
1765999841792308200,9.98230810546875,-1.6101980209350586,1.065989971160889,2.3139822483062744,6.985829589843751
1765999841811087400,10.00108740234375,-1.7286086082458496,1.386483669281006,2.996561050415039,7.00460888671875
1765999841829866500,10.019866455078123,-4.493485927581787,3.490571975708008,3.857385635375977,7.023387939453124
1765999841848645600,10.038645751953124,-0.2432899475097656,8.326028823852539,5.532751083374023,7.042167236328125
