time,seconds_elapsed,z,y,x,t
1765999846937794300,15.127794189453123,-3.3064093589782715,-2.167752265930176,0.5273056030273438,12.131315673828123
1765999846956573400,15.146573486328125,-2.984879732131958,-2.863666534423828,-1.222478985786438,12.150094970703126
1765999846975352600,15.1653525390625,-2.957415819168091,-3.9515256881713863,-1.7939798831939695,12.1688740234375
1765999846994131700,15.184131591796875,-3.1810426712036133,-4.771011352539063,-1.3561939001083374,12.187653076171877
1765999847012910800,15.202910888671877,-3.392571449279785,-4.850930690765381,-0.4017985165119171,12.206432373046876
1765999847031690000,15.22168994140625,-3.437363147735596,-4.591765880584717,0.2838175892829895,12.22521142578125
1765999847050469000,15.24046923828125,-3.1759042739868164,-4.442136764526367,0.3183075189590454,12.24399072265625
1765999847069248300,15.259248291015624,-2.9496095180511475,-4.327756881713867,0.1155283451080322,12.262769775390623
1765999847088027600,15.278027587890625,-2.8831021785736084,-3.9787168502807617,-0.2366658449172973,12.281549072265626
1765999847106806800,15.296806884765624,-2.8516833782196045,-3.2825241088867188,-0.6359584331512451,12.300328369140626
1765999847125586000,15.3155859375,-2.7854902744293213,-2.5226430892944336,-0.9781324863433838,12.319107421875
1765999847144365000,15.334364990234375,-2.668141365051269,-2.1197423934936523,-0.9328078031539916,12.337886474609377
1765999847163144200,15.353144287109377,-2.586524486541748,-1.958792209625244,-0.709151029586792,12.356665771484376
1765999847181923300,15.37192333984375,-2.35672664642334,-1.53411865234375,-0.5755326151847839,12.37544482421875
1765999847200702500,15.390702392578126,-2.205009698867798,-0.8206758499145508,-0.5958249568939209,12.394223876953127
1765999847219481600,15.409481689453123,-1.9750585556030276,-0.1607131958007812,-0.3211920261383056,12.413003173828123
1765999847238260700,15.4282607421875,-1.9298772811889648,-0.0015602111816406,0.1934270858764648,12.4317822265625
1765999847257040000,15.447039794921874,-1.744239330291748,0.0989818572998046,0.4965454339981079,12.450561279296874
1765999847275819000,15.465819091796876,-1.456690788269043,0.2601423263549804,0.8408140540122986,12.469340576171877
1765999847294598100,15.48459814453125,-1.2518515586853027,0.3359823226928711,1.265059471130371,12.48811962890625
1765999847313377500,15.50337744140625,-1.1165657043457031,0.2917928695678711,1.4354771375656128,12.50689892578125
1765999847332156700,15.52215673828125,-1.5262417793273926,0.7615242004394531,1.7030398845672607,12.52567822265625
1765999847350935800,15.540935791015626,-1.5707263946533203,3.2851152420043945,3.624856472015381,12.544457275390627
1765999847369715000,15.55971484375,0.759044885635376,5.339738845825195,5.532388210296631,12.563236328125
1765999847388494000,15.578494140625,2.1967482566833496,6.313555717468262,3.6384661197662354,12.582015625
1765999847407273200,15.597273193359374,5.44614315032959,9.40042781829834,-3.551595687866211,12.600794677734374
1765999847426052400,15.61605224609375,6.766716957092285,7.385457992553711,-8.982270240783691,12.619573730468751
1765999847444831500,15.63483154296875,5.594599723815918,3.410336494445801,-10.593912124633787,12.63835302734375
1765999847473000200,15.663000244140624,1.6197795867919922,2.45194149017334,-6.95957088470459,12.666521728515626
1765999847491779300,15.681779296875,0.9423913955688475,1.7662324905395508,-2.9064812660217285,12.68530078125
1765999847510558700,15.700558837890624,2.7375614643096924,-0.2267885208129882,-1.685176968574524,12.704080322265625
1765999847529337900,15.719337890625,3.6728885173797607,-0.5933208465576172,-1.036806344985962,12.722859375000002
1765999847548117000,15.738116943359374,3.792322397232056,0.2959108352661133,-0.341338574886322,12.741638427734376
1765999847566896000,15.756896240234376,4.438571929931641,0.6442642211914062,0.6117461919784546,12.760417724609376
1765999847585675300,15.77567529296875,4.331218242645264,0.2376670837402343,1.023035168647766,12.77919677734375
1765999847604454400,15.794454345703125,3.7796456813812256,0.1452236175537109,0.3138022720813751,12.797975830078126
1765999847623233500,15.813233642578124,3.5708999633789062,0.5191183090209961,0.7519435882568359,12.816755126953126
1765999847642012700,15.8320126953125,2.986353874206543,0.7974376678466797,2.3211021423339844,12.8355341796875
1765999847660792000,15.8507919921875,1.896492958068848,0.984933853149414,3.331568956375122,12.8543134765625
1765999847679571200,15.8695712890625,1.2641048431396484,1.105875015258789,3.791582107543945,12.873092773437502
1765999847698350300,15.888350341796874,0.527153491973877,1.542527198791504,2.8729937076568604,12.891871826171876
1765999847717129500,15.90712939453125,1.352311134338379,2.355587959289551,0.5328142046928406,12.91065087890625
1765999847735908600,15.92590869140625,2.3579530715942383,3.2464675903320312,-1.9646450281143188,12.929430175781249
1765999847764077300,15.954077392578125,1.4705910682678225,5.100763320922852,-3.5949246883392334,12.957598876953124
1765999847782856400,15.9728564453125,0.7653892040252686,5.2477006912231445,-1.991857886314392,12.976377929687501
1765999847801635600,15.991635498046875,0.2507591247558594,4.669318199157715,-0.0042882598936557,12.995156982421875
1765999847820414700,16.010414794921875,-0.4118568897247314,4.318229675292969,1.6774775981903076,13.013936279296875
1765999847839194000,16.029194091796874,-1.235947847366333,4.216605186462402,2.3474440574646,13.032715576171874
1765999847857973200,16.04797314453125,-2.0820326805114746,3.574207305908203,0.9132837057113647,13.051494628906251
1765999847876752400,16.06675244140625,-2.403318166732788,2.6684532165527344,-0.5778486132621765,13.070273925781251
1765999847895531500,16.085531494140625,-11.57626724243164,-1.7751140594482422,-1.2489724159240725,13.089052978515625
1765999847914310700,16.104310546875,-2.428302764892578,-2.246013641357422,-9.803373336791992,13.107832031249998
1765999847933089800,16.12308984375,-3.234576940536499,4.829795837402344,-5.381368637084961,13.126611328125001
1765999847951869000,16.141868896484375,-2.7308573722839355,0.6185302734375,4.2233476638793945,13.145390380859375
1765999847970648000,16.16064794921875,-4.695180892944336,-1.739445686340332,6.613997459411621,13.164169433593749
1765999847989427200,16.17942724609375,-3.902964353561402,-0.3756666183471679,0.4376757740974426,13.182948730468748
1765999848017596000,16.207595947265624,-2.346108675003052,-1.0479192733764648,-5.120614528656006,13.211117431640623
1765999848036375300,16.226375244140623,-3.0559895038604736,-3.861237525939941,-5.495850563049316,13.229896728515623
1765999848055154400,16.245154541015626,-3.623183250427246,-4.497990608215332,-0.6556912660598755,13.248676025390626
1765999848083323100,16.2733232421875,-4.220905303955078,-3.3043971061706543,5.228616714477539,13.276844726562501
1765999848102102300,16.292102294921875,-3.134397268295288,-4.150964736938477,3.6927859783172607,13.295623779296875
1765999848120881400,16.31088134765625,-2.407521247863769,-5.131534099578857,0.6641040444374084,13.314402832031249
1765999848139660500,16.32966064453125,-2.5144779682159424,-5.990893363952637,-1.6042561531066897,13.333182128906248
1765999848158439700,16.348439697265626,-3.163745403289795,-6.725124359130859,-1.462681531906128,13.351961181640625
1765999848177218800,16.36721875,-3.506798505783081,-6.95974063873291,0.2342403531074524,13.370740234374999
1765999848195998200,16.385998291015625,-3.625510215759277,-6.8425798416137695,1.2165896892547607,13.389519775390625
1765999848214777300,16.40477734375,-3.2868173122406006,-6.952766418457031,1.2077840566635132,13.408298828124998
1765999848233556500,16.423556396484376,-2.764582633972168,-7.073198795318604,1.141872525215149,13.427077880859375
1765999848252335600,16.442335693359375,-2.5823700428009038,-6.756089210510254,1.0364753007888794,13.445857177734375
1765999848271114800,16.46111474609375,-2.5890417098999023,-5.978947639465332,1.112701177597046,13.464636230468749
1765999848289894000,16.479893798828126,-2.74303936958313,-4.799926280975342,1.0138260126113892,13.483415283203126
1765999848308673000,16.498673095703126,-3.0160350799560547,-3.342702865600586,0.7366139888763428,13.502194580078125
1765999848327452200,16.5174521484375,-3.112513303756714,-2.169707775115967,0.5145848989486694,13.520973632812499
1765999848346231300,16.536231201171876,-3.0456738471984863,-1.1885042190551758,0.1947409510612487,13.539752685546876
1765999848365010400,16.555010498046876,-2.7038745880126958,-0.3452653884887695,-0.0333015322685241,13.558531982421876
1765999848383789800,16.573789794921876,-2.364989280700684,0.5804786682128906,0.1000544428825378,13.577311279296875
1765999848411958500,16.60195849609375,-2.3080873489379883,0.9528799057006836,0.628003716468811,13.60547998046875
1765999848430737700,16.620737548828124,-2.283649444580078,0.6054325103759766,1.007072925567627,13.624259033203124
1765999848449516800,16.639516845703124,-2.2196664810180664,1.1748647689819336,1.5081541538238523,13.643038330078124
1765999848468296000,16.6582958984375,-2.40431547164917,1.9852466583251955,1.6993672847747805,13.661817382812501
1765999848487075000,16.677074951171875,-2.5080370903015137,2.353723526000977,2.256420135498047,13.680596435546875
1765999848505854200,16.695854248046874,-2.508768081665039,2.183234214782715,2.891568422317505,13.699375732421874
1765999848524633300,16.71463330078125,-2.458787441253662,1.7700672149658203,3.5112459659576416,13.718154785156251
1765999848543412700,16.733412841796873,-4.970461845397949,2.5469369888305664,1.7019914388656616,13.736934326171873
1765999848562192000,16.75219189453125,-1.0527839660644531,9.325521469116213,1.5466926097869873,13.75571337890625
1765999848580971000,16.770970947265624,4.172153472900391,12.880260467529297,-2.1531243324279785,13.774492431640624
1765999848599750100,16.789750244140624,6.356196403503418,10.96784210205078,-10.308271408081056,13.793271728515624
1765999848618529300,16.808529296875,8.642598152160645,6.165530204772949,-6.4440871477127075,13.81205078125
1765999848637308400,16.827308349609375,6.298276901245117,0.8958501815795898,-9.015432357788086,13.830829833984374
1765999848656087600,16.846087646484374,3.60323166847229,0.3189687728881836,-3.872741937637329,13.849609130859374
1765999848674866700,16.86486669921875,3.764337539672852,1.0372352600097656,1.7921301126480105,13.868388183593751
1765999848693646000,16.88364599609375,4.073390007019043,-0.1323404312133789,4.188477516174316,13.88716748046875
1765999848712425200,16.90242529296875,3.237766981124878,-1.0096073150634766,1.676992416381836,13.90594677734375
1765999848731204400,16.921204345703124,2.258951187133789,-1.0541133880615234,-0.4786872863769531,13.924725830078124
1765999848749983500,16.9399833984375,1.571524977684021,-0.7156734466552734,-1.135132908821106,13.943504882812501
1765999848768762600,16.9587626953125,1.312816500663757,-0.1923799514770507,-0.721326470375061,13.9622841796875
1765999848787541800,16.977541748046875,1.2964904308319092,-0.0837764739990234,0.3000541925430298,13.981063232421874
1765999848806321000,16.99632080078125,1.570737361907959,-0.2823133468627929,0.7482416033744812,13.999842285156248
1765999848825100300,17.015100341796874,1.765760898590088,-0.1525869369506836,0.4581608772277832,14.018621826171874
1765999848843879400,17.03387939453125,1.6837607622146606,0.3181648254394531,0.2707377672195434,14.03740087890625
1765999848862658600,17.052658447265625,1.0041286945343018,0.6290140151977539,-0.0258867144584655,14.056179931640624
1765999848881437700,17.071437744140624,0.7483713626861572,0.3601322174072265,0.0297471284866333,14.074959228515624
1765999848900216800,17.090216796875,-0.0790028572082519,0.1013879776000976,0.4756584167480469,14.093738281250001
1765999848918996000,17.108995849609375,-1.0440673828125,0.2652063369750976,0.7090010046958923,14.112517333984375
1765999848937775000,17.127775146484375,-2.007576942443848,0.2913522720336914,0.529822587966919,14.131296630859374
1765999848956554200,17.14655419921875,-1.8286919593811035,0.2505111694335937,-0.2316217422485351,14.150075683593748
1765999848975333600,17.165333740234374,-1.243678092956543,0.2976188659667969,-0.7838430404663086,14.168855224609374
