time,seconds_elapsed,z,y,x,t
1765999841876814300,10.066814453125,-0.6078104376792908,2.882441759109497,-1.8991022109985352,7.0609462890625
1765999841895593500,10.085593505859377,-0.1372918635606765,1.7778456211090088,-1.897727847099304,7.079725341796877
1765999841914372600,10.10437255859375,-0.1304196268320083,-0.0309250298887491,-1.674914836883545,7.0985043945312505
1765999841933151700,10.12315185546875,-0.3431532979011535,-1.7434844970703125,-1.2596795558929443,7.11728369140625
1765999841951931000,10.141930908203124,-0.448069304227829,-1.9617159366607664,-1.0122792720794678,7.136062744140624
1765999841970710000,10.1607099609375,-0.425467312335968,-0.820773184299469,-0.9895246028900146,7.154841796874999
1765999841989489200,10.1794892578125,-0.148592859506607,0.6504946351051331,-1.0359503030776978,7.1736210937500005
1765999842008268300,10.198268310546876,0.0728456228971481,0.94050270318985,-0.9580650329589844,7.192400146484376
1765999842027047400,10.21704736328125,-0.0200058221817016,0.4676933586597442,-0.7520508766174316,7.2111791992187495
1765999842045826600,10.23582666015625,-0.0468838736414909,-0.040240716189146,-0.63568115234375,7.229958496093751
1765999842064605700,10.254605712890625,0.0616973415017128,0.1485165059566497,-0.5135082006454468,7.2487375488281245
1765999842083384800,10.273384765625,0.0302378069609403,0.5078576803207397,-0.3197113573551178,7.2675166015625
1765999842102164000,10.2921640625,0.0445931293070316,0.7030289769172668,-0.1143080741167068,7.2862958984374995
1765999842120943000,10.310943115234377,0.0558941289782524,0.5967385172843933,0.0927750915288925,7.305074951171877
1765999842139722200,10.32972216796875,0.0888808220624923,0.3241401314735412,0.2827540338039398,7.32385400390625
1765999842158501400,10.34850146484375,0.1159115955233573,0.0565813519060611,0.4400517046451568,7.34263330078125
1765999842177280500,10.367280517578124,0.0830776095390319,-0.0130572346970438,0.5319868922233582,7.3614123535156235
1765999842196059600,10.3860595703125,0.080481432378292,0.0655916035175323,0.6164389252662659,7.380191406250001
1765999842214838800,10.4048388671875,0.0928514450788497,0.23648102581501,0.723798394203186,7.398970703125
1765999842233618000,10.423617919921876,0.1024725660681724,0.3249036967754364,0.8140536546707153,7.417749755859376
1765999842261786600,10.45178662109375,0.1191186308860778,0.2167806327342987,0.921260416507721,7.445918457031249
1765999842280565800,10.470565673828125,0.1779143661260604,0.0040469793602824,0.9617302417755128,7.4646975097656245
1765999842299345000,10.489344970703126,0.2432768940925598,-0.2299142330884933,0.9854012727737428,7.483476806640626
1765999842327513600,10.517513671875,0.2993237376213074,-0.3210858106613159,0.9382119178771972,7.511645507812499
1765999842346292700,10.536292724609376,0.1310304999351501,-0.3467421233654022,0.8436806201934814,7.5304245605468765
1765999842365072000,10.55507177734375,0.0183259434998035,-0.3111592531204223,0.6967676281929016,7.54920361328125
1765999842383851000,10.57385107421875,-0.0419969521462917,-0.2714530229568481,0.5689441561698914,7.56798291015625
1765999842402630100,10.592630126953123,-0.1140789985656738,-0.2822958827018738,0.5032762289047241,7.586761962890623
1765999842421409300,10.6114091796875,-0.1884517818689346,-0.2928332984447479,0.3965275883674621,7.6055410156250005
1765999842440188400,10.6301884765625,-0.0606283284723758,-0.194484069943428,0.1311068534851074,7.6243203125
1765999842458967300,10.64896728515625,0.2968802750110626,-0.1410334110260009,-0.1847102344036102,7.64309912109375
1765999842477746700,10.66774658203125,0.5586358308792114,-0.367053359746933,-0.4531853199005127,7.661878417968749
1765999842496525800,10.68652587890625,0.5064069032669067,-0.94523686170578,-0.6559923887252808,7.6806577148437505
1765999842524694500,10.714694580078126,0.3848448097705841,-1.5370121002197266,-0.6712640523910522,7.708826416015626
1765999842543473700,10.7334736328125,-0.0390953458845615,-1.7934225797653198,-0.2506836354732513,7.727605468749999
1765999842562252800,10.752252685546877,-0.3393353819847107,-1.790826439857483,-0.1798233240842819,7.7463845214843765
1765999842581031700,10.77103173828125,-0.3338375985622406,-1.4737876653671265,0.131717711687088,7.76516357421875
1765999842599811000,10.78981103515625,-0.3173442482948303,-1.5101341009140017,0.5296961069107056,7.78394287109375
1765999842618590000,10.80858984375,-0.3750709891319275,-1.4255293607711792,0.9750165343284608,7.802721679687499
1765999842637369000,10.827369140625,-0.4129445850849151,-1.0747401714324951,1.420947790145874,7.8215009765625005
1765999842656148500,10.8461484375,-0.4885390996932983,-0.5211440324783325,1.7682244777679443,7.8402802734375
1765999842674927400,10.86492724609375,-0.6311760544776917,0.2428951114416122,1.913152098655701,7.85905908203125
1765999842693706800,10.883706787109375,-0.7538071274757385,0.912708342075348,1.9362123012542725,7.877838623046875
1765999842712485600,10.902485595703125,-0.7936660647392273,1.317559003829956,1.898185968399048,7.896617431640625
1765999842731264800,10.9212646484375,-0.7799215912818909,1.298011302947998,1.7905210256576538,7.915396484375
1765999842750044200,10.940044189453126,-0.7260127663612366,0.9276745319366456,1.5742748975753784,7.9341760253906255
1765999842768823000,10.958822998046877,-0.750141978263855,0.2647335231304168,1.2286781072616575,7.952954833984377
1765999842787602400,10.9776025390625,-0.8749110698699951,-0.3979020416736603,0.7497601509094238,7.9717343750000005
1765999842806381300,10.99638134765625,-1.0943642854690552,-0.6646972298622131,0.1674533039331436,7.99051318359375
1765999842825160400,11.015160400390624,-1.4871503114700315,-0.3117701113224029,-0.4114937782287597,8.009292236328124
1765999842843939800,11.03393994140625,-2.043953657150269,0.4078285992145538,-1.0124319791793823,8.028071777343749
1765999842862718700,11.05271875,-2.612821340560913,0.591088056564331,-2.1964406967163086,8.0468505859375
1765999842881498000,11.071498046875,-2.970329999923706,1.1097122430801392,-3.6009714603424072,8.0656298828125
1765999842900277000,11.090277099609375,-3.177107810974121,1.0672571659088137,-4.601720809936523,8.084408935546875
1765999842919056400,11.109056396484377,-2.8956518173217773,-0.2381609082221985,-5.109960079193115,8.103188232421877
1765999842937835300,11.127835205078124,-1.680947184562683,-3.080056667327881,-3.448713541030884,8.121967041015624
1765999842956614400,11.146614501953126,-0.3029889166355133,-0.9624938368797302,-4.6044697761535645,8.140746337890626
1765999842975393800,11.165393798828124,1.1145228147506714,-2.6257259845733643,-3.624489784240722,8.159525634765624
1765999842994172700,11.184172607421877,0.916602611541748,-3.279198408126831,-2.971933603286743,8.178304443359377
1765999843012952000,11.2029521484375,0.9103412628173828,-2.3520584106445312,-2.769431829452514,8.197083984375
1765999843031731000,11.22173095703125,1.1849249601364136,-0.7801506519317627,-2.303647518157959,8.21586279296875
1765999843050510300,11.24051025390625,1.0378592014312744,-0.2289979308843612,-1.4983749389648438,8.23464208984375
1765999843069289500,11.25928955078125,0.9770781993865968,-0.1300378441810608,-0.9172898530960084,8.25342138671875
1765999843088068600,11.278068603515624,1.082452416419983,-0.2468657344579696,-0.3705658614635467,8.272200439453124
1765999843106847700,11.29684765625,1.0975712537765503,-0.5141190886497498,0.167300596833229,8.2909794921875
1765999843125627000,11.315626953125,1.092989802360535,-0.4841867089271545,0.603458046913147,8.3097587890625
1765999843144406000,11.334406005859377,1.124754786491394,-0.283975750207901,0.9585232138633728,8.328537841796877
1765999843163185200,11.35318505859375,1.136055827140808,-0.1703549176454544,1.2709804773330688,8.34731689453125
1765999843181964300,11.37196435546875,1.1369720697402954,-0.0681877806782722,1.4913500547409058,8.36609619140625
1765999843200743400,11.390743408203123,1.1421644687652588,0.1132390573620796,1.6358195543289185,8.384875244140623
1765999843219522600,11.4095224609375,1.1174243688583374,0.1897498667240142,1.715537428855896,8.403654296875
1765999843238301700,11.4283017578125,1.0772600173950195,0.1526398360729217,1.7495931386947632,8.42243359375
1765999843257080800,11.447080810546876,1.0236566066741943,0.1434768587350845,1.746233344078064,8.441212646484376
1765999843275860000,11.46585986328125,0.93813556432724,0.1007163301110267,1.7075961828231812,8.45999169921875
1765999843294639000,11.48463916015625,0.8287907838821411,0.0119882216677069,1.6411645412445068,8.47877099609375
1765999843313418200,11.503418212890624,0.6944005489349365,-0.0347429327666759,1.5632792711257937,8.497550048828124
1765999843332197400,11.522197265625,0.5418370366096497,0.0032833982259035,1.477758288383484,8.5163291015625
1765999843350976500,11.5409765625,0.3819431960582733,0.176005408167839,1.3708568811416626,8.5351083984375
1765999843369755600,11.559755615234376,0.2156352698802948,0.3769799172878265,1.2030218839645386,8.553887451171876
1765999843388534800,11.57853466796875,0.0256563201546669,0.6779835224151611,0.9962440729141236,8.57266650390625
1765999843407314000,11.59731396484375,-0.1834121495485305,0.9460004568099976,0.6514109373092651,8.59144580078125
1765999843426093000,11.616093017578123,-0.3921751976013183,1.262733817100525,-0.0530688762664794,8.610224853515623
1765999843444872200,11.6348720703125,-0.7965676784515381,1.6538400650024414,-0.9563851952552797,8.62900390625
1765999843463651300,11.6536513671875,-0.8381064534187317,1.462333917617798,-1.2602903842926023,8.647783203125
1765999843482430500,11.672430419921875,-0.1067486181855201,0.5296961069107056,-0.9466113448143004,8.666562255859375
1765999843501209600,11.691209716796877,0.3408625423908233,-0.4701367914676666,-0.7212022542953491,8.685341552734377
1765999843519988700,11.70998876953125,0.0531452372670173,-0.8022945523262024,-0.4889208972454071,8.70412060546875
1765999843538768000,11.728767822265626,-0.1030834317207336,-0.464944452047348,-0.3870591819286346,8.722899658203126
1765999843557547000,11.747547119140624,-0.0849102064967155,0.1359937787055969,-0.3371210098266601,8.741678955078124
1765999843576326100,11.766326171875,0.0749836489558219,0.4753291606903076,-0.2903898358345032,8.7604580078125
1765999843595105300,11.785105224609374,0.1186604797840118,0.2528216540813446,-0.2677878439426422,8.779237060546874
1765999843613884400,11.803884521484376,0.0551305450499057,-0.1611919403076172,-0.2687041461467743,8.798016357421876
1765999843642053000,11.83205322265625,0.040469791740179,-0.4554760456085205,-0.2832121849060058,8.82618505859375
1765999843660832300,11.850832275390625,0.0171042140573263,-0.3720930218696594,-0.3059668838977813,8.844964111328125
1765999843679611400,11.869611328125,-0.0555886961519718,-0.1731038093566894,-0.3323867917060852,8.8637431640625
1765999843698390500,11.888390625,-0.0960584878921508,-0.0034361144062131,-0.3554469347000122,8.8825224609375
1765999843717169700,11.907169677734377,-0.1189659163355827,0.1191949918866157,-0.3934732675552368,8.901301513671877
1765999843735948800,11.92594873046875,-0.1695149689912796,0.2079230993986129,-0.4093557596206665,8.92008056640625
1765999843754728000,11.94472802734375,-0.2072358727455139,0.2682459950447082,-0.4310414493083954,8.93885986328125
1765999843773507000,11.963507080078124,-0.2605338394641876,0.3180314898490906,-0.4525744318962097,8.957638916015624
1765999843792286200,11.9822861328125,-0.3081812858581543,0.4001927971839905,-0.4698313772678375,8.97641796875
1765999843820455000,12.010454833984374,-0.3145953714847564,0.4814378023147583,-0.4224893450736999,9.004586669921874
1765999843839234300,12.029234375,-0.2461785078048706,0.5179370045661926,-0.3400225937366485,9.0233662109375
1765999843858013400,12.048013427734375,-0.1957821547985077,0.3165042996406555,-0.2244164496660232,9.042145263671875
1765999843876792600,12.06679248046875,-0.1401934623718261,-0.0217620581388473,-0.0933859497308731,9.06092431640625
1765999843895571700,12.08557177734375,-0.065515249967575,-0.4157698452472687,0.0148898288607597,9.07970361328125
1765999843914350800,12.104350830078126,-0.0354301556944847,-0.6207149624824524,0.0874300226569175,9.098482666015625
