time,seconds_elapsed,z,y,x,t
1766001845148574200,6.79157421875,10.15288543701172,-4.005408763885498,1.988351345062256,5.061619384765625
1766001845167355600,6.810355712890625,7.17100715637207,-0.4958171844482422,3.9577174186706543,5.08040087890625
1766001845186137300,6.829137451171875,3.116371154785156,0.0557327270507812,2.352135419845581,5.0991826171875
1766001845204918800,6.847918701171875,1.0603821277618408,-0.6637229919433594,-0.6846221089363098,5.1179638671875
1766001845223700200,6.8667001953125,1.520643949508667,0.1237506866455078,-1.2875127792358398,5.136745361328125
1766001845242482000,6.88548193359375,2.87276029586792,-0.4505376815795898,1.3425642251968384,5.155527099609375
1766001845261263400,6.904263427734375,5.786273002624512,-1.2485876083374023,1.3376398086547852,5.17430859375
1766001845280044800,6.923044921875,7.843296051025391,-0.8567867279052734,-0.8108299374580383,5.193090087890625
1766001845298826500,6.941826416015625,7.049233913421631,-0.5001869201660156,-2.469200849533081,5.21187158203125
1766001845317608000,6.96060791015625,2.8504080772399902,0.4112863540649414,-1.6460915803909302,5.230653076171875
1766001845336389600,6.9793896484375,0.409105896949768,-0.8617115020751953,0.879106879234314,5.249434814453125
1766001845355171000,6.998171142578125,0.6389791965484619,-2.138843536376953,1.4689089059829712,5.2682163085937495
1766001845373952500,7.016952392578125,-0.3039307594299316,-1.6001505851745603,1.797898292541504,5.28699755859375
1766001845392734200,7.035734130859375,0.6248791217803955,-2.2473678588867188,2.879502534866333,5.3057792968749995
1766001845411515600,7.054515625,2.048091173171997,-1.49434232711792,1.793370008468628,5.3245607910156245
1766001845430297000,7.073297119140625,1.7909331321716309,-0.2541351318359375,-0.4614272117614746,5.3433422851562495
1766001845449078800,7.092078857421875,-1.8395509719848635,0.3338651657104492,-0.072199560701847,5.3621240234375
1766001845467860200,7.110860107421875,-2.159109115600586,-2.1794309616088867,1.57773756980896,5.3809052734375
1766001845486641700,7.1296416015625,-9.472288131713867,-3.2426586151123047,-1.7433143854141235,5.399686767578125
1766001845505423400,7.14842333984375,-11.36214542388916,-4.62374210357666,-6.121320724487305,5.418468505859375
1766001845524204800,7.167204833984375,-18.301834106445312,6.148445129394531,-7.614549160003662,5.43725
1766001845542986200,7.185986328125,-23.388416290283203,10.893834114074709,-1.1625405550003052,5.456031494140625
1766001845561768000,7.204767822265625,-23.933429718017575,5.844925880432129,3.447162628173828,5.47481298828125
1766001845580549400,7.22354931640625,-18.572139739990234,9.873035430908203,7.104984760284424,5.493594482421875
1766001845599330800,7.242330810546875,-8.956936836242676,23.5062198638916,3.8001441955566406,5.5123759765625
1766001845618112500,7.261112548828125,-1.8405065536499023,15.82713794708252,2.0891273021698,5.53115771484375
1766001845636894000,7.27989404296875,3.2542920112609863,-1.8005590438842771,2.2981181144714355,5.549939208984375
1766001845655675400,7.29867529296875,14.27838897705078,-14.960095405578612,-0.8985176086425781,5.568720458984375
1766001845674457000,7.31745703125,18.82837677001953,-17.721088409423828,1.3131401538848877,5.587502197265625
1766001845693238500,7.336238525390625,9.759936332702637,-7.798156261444092,6.555340766906738,5.60628369140625
1766001845712020200,7.355020263671875,3.247307538986206,-10.115961074829102,-2.360591411590576,5.6250654296875
1766001845730801700,7.3738017578125,-1.0767450332641602,-8.421387672424316,-2.115172863006592,5.643846923828125
1766001845749583000,7.3925830078125,-2.1036062240600586,-8.709226608276367,3.709031105041504,5.662628173828125
1766001845768364800,7.41136474609375,0.0615399777889251,-9.09978485107422,3.7423930168151855,5.681409912109375
1766001845787146200,7.430146240234375,2.152947187423706,-10.241891860961914,1.119418740272522,5.70019140625
1766001845815318500,7.458318603515625,3.315863132476806,-10.605742454528809,0.626854658126831,5.72836376953125
1766001845834100200,7.477100341796875,2.323988437652588,-10.30578327178955,1.0371851921081543,5.7471455078125
1766001845852881700,7.495881591796875,1.3683528900146484,-9.769336700439451,1.8110352754592896,5.7659267578125
1766001845871663000,7.5146630859375,0.8425908088684082,-9.484373092651367,1.8232839107513428,5.784708251953125
1766001845890444800,7.53344482421875,1.4316339492797852,-10.090656280517578,2.552854537963867,5.803489990234375
1766001845909226200,7.552226318359375,2.291417360305786,-10.500097274780272,2.189594268798828,5.822271484375
1766001845937398500,7.5803984375,2.279482364654541,-10.499069213867188,1.469419240951538,5.850443603515625
1766001845956180200,7.59918017578125,-0.8049209117889404,-12.94433879852295,-1.1973187923431396,5.8692253417968745
1766001845974961700,7.617961669921875,-15.440168380737305,16.34703826904297,-7.602841377258301,5.8880068359374995
1766001845993743000,7.6367431640625,3.0052852630615234,35.83329772949219,0.5774393081665039,5.9067883300781245
1766001846021915600,7.66491552734375,0.8224256038665771,9.223333358764648,4.6962175369262695,5.934960693359375
1766001846040697000,7.683697021484375,-5.267315864562988,45.6479721069336,6.4883341789245605,5.9537421875
1766001846059478500,7.702478515625,-14.375852584838867,5.053436279296875,-0.5341418385505676,5.972523681640625
1766001846078260200,7.72126025390625,-15.229689598083496,-8.338730812072754,-1.9172580242156985,5.991305419921875
1766001846097041700,7.740041748046875,-9.72844696044922,-7.370565414428711,-5.403095245361328,6.0100869140625
1766001846115823000,7.758822998046875,-3.7887966632843018,-1.7586679458618164,-3.1060116291046143,6.0288681640625
1766001846134604800,7.777604736328125,-1.0373401641845703,-1.0969085693359375,1.105210781097412,6.04764990234375
1766001846153386200,7.79638623046875,1.2673839330673218,-3.624636173248291,4.420446872711182,6.066431396484375
1766001846172167700,7.815167724609375,3.12796688079834,-4.017379283905029,4.208508968353272,6.085212890625
1766001846190949400,7.833949462890625,4.740669250488281,-3.414292812347412,3.99682879447937,6.10399462890625
1766001846209730800,7.852730712890625,5.255048751831055,-3.1121177673339844,2.782095432281494,6.12277587890625
1766001846228512500,7.871512451171875,3.949375629425049,-3.22127628326416,-0.1240532994270324,6.1415576171875
1766001846247294000,7.8902939453125,1.1790937185287476,-2.623617649078369,-2.580989122390747,6.160339111328125
1766001846266075400,7.909075439453125,-1.5114049911499023,-0.5773696899414062,-1.858773112297058,6.17912060546875
1766001846284857000,7.927857177734375,-2.8237099647521973,1.4100914001464844,-0.1774395108222961,6.19790234375
1766001846303638500,7.946638427734375,-1.967650413513184,3.1521358489990234,0.2944374978542328,6.21668359375
1766001846322420000,7.965419921875,-2.773665428161621,3.708989143371582,-1.261418700218201,6.235465087890625
1766001846341201700,7.98420166015625,-3.469318151473999,2.486190795898437,-1.6846169233322144,6.254246826171875
1766001846359983000,8.002983154296874,-2.539771318435669,0.2195472717285156,-0.8637474775314331,6.273028320312499
1766001846378764800,8.021764892578124,0.423321008682251,-0.663203239440918,0.1113888621330261,6.291810058593749
1766001846397546200,8.040546142578124,3.472522258758545,-1.5458097457885742,0.0931077897548675,6.310591308593749
1766001846416327700,8.05932763671875,5.3255462646484375,-1.6335234642028809,0.0924018025398254,6.329372802734375
1766001846435109400,8.078109375,6.855345726013184,-0.7061843872070312,0.799269437789917,6.348154541015625
1766001846453890800,8.096890869140625,7.591257572174072,0.4228105545043945,0.5855101346969604,6.366936035156249
1766001846472672500,8.115672607421875,7.736154556274414,0.5194463729858398,0.3249254822731018,6.385717773437499
1766001846491454000,8.134453857421875,7.749483108520508,0.0974884033203125,-0.2357807457447052,6.4044990234374986
1766001846510235400,8.1532353515625,7.848131656646728,-0.2935371398925781,-0.4181180000305176,6.4232805175781245
1766001846529017000,8.17201708984375,7.037992477416992,-0.4476804733276367,-0.7789764404296875,6.4420622558593745
1766001846557189400,8.200189453125,2.8232674598693848,0.7377872467041016,-0.8272261619567871,6.470234619140625
1766001846575970800,8.218970703125,0.5118491649627686,1.339604377746582,-1.7783551216125488,6.489015869140625
1766001846594752500,8.23775244140625,2.4478468894958496,1.3852453231811523,-1.802295207977295,6.507797607421875
1766001846613534000,8.256533935546875,2.606033563613892,0.5032262802124023,-0.4390422105789184,6.526579101562499
1766001846632315400,8.2753154296875,-1.2332031726837158,-0.4508390426635742,0.2957566380500793,6.545360595703125
1766001846651097000,8.29409716796875,-1.49747896194458,-3.98615837097168,2.613046407699585,6.564142333984375
1766001846669878500,8.31287841796875,-2.017040252685547,-6.095974922180176,2.596104145050049,6.582923583984375
1766001846688660200,8.33166015625,-2.7350902557373047,-6.461125373840332,1.796118974685669,6.601705322265625
1766001846707441700,8.350441650390625,-3.765537738800049,-5.941873550415039,-0.514246940612793,6.620486816406249
1766001846726223000,8.36922314453125,-7.077930450439453,-7.316736221313477,-0.7254723906517029,6.639268310546875
1766001846745004800,8.3880048828125,-13.432022094726562,-7.793004035949707,-0.3649144768714905,6.658050048828123
1766001846763786200,8.4067861328125,-16.42732048034668,-4.4067463874816895,0.840178370475769,6.676831298828125
1766001846782567700,8.425567626953125,-15.89204216003418,7.794425964355469,2.8217692375183105,6.695612792968749
1766001846801349400,8.444349365234375,-16.62059783935547,33.75798797607422,7.999536514282227,6.714394531249999
1766001846820130800,8.463130859375,-19.54163360595703,9.78085994720459,1.400872826576233,6.733176025390623
1766001846838912300,8.481912353515625,-15.924922943115234,7.266984939575195,-0.730785071849823,6.751957519531249
1766001846857694000,8.50069384765625,-7.277718544006348,18.10999298095703,-6.981577396392822,6.770739013671873
1766001846876475400,8.519475341796875,-1.5021989345550537,7.901385307312012,-5.929544448852539,6.789520507812499
1766001846895256800,8.5382568359375,6.739309787750244,-9.274826049804688,3.525678396224976,6.808302001953123
1766001846914038500,8.55703857421875,16.623363494873047,-14.673788070678713,3.5210065841674805,6.827083740234373
1766001846932820000,8.575820068359375,16.15072250366211,-14.685070037841797,4.9396843910217285,6.845865234374999
1766001846951601700,8.5946015625,11.136877059936523,-11.799361228942873,3.758586406707764,6.864646728515623
1766001846970383000,8.613383056640625,4.418801307678223,-9.34445571899414,-0.6965610384941101,6.883428222656249
1766001846989164800,8.632164794921875,-1.0717439651489258,-9.499863624572754,-1.4269297122955322,6.902209960937499
1766001847007946200,8.6509462890625,-3.0823843479156494,-8.711295127868652,1.1932430267333984,6.9209914550781235
1766001847026727700,8.669727783203125,-1.9653265476226809,-9.02318000793457,0.3168210983276367,6.939772949218749
1766001847045509400,8.68850927734375,-0.3019052743911743,-9.740328788757324,0.3272222876548767,6.958554443359374
1766001847064290800,8.707290771484375,1.3614948987960815,-9.949810981750488,0.9859741926193236,6.9773359374999995
1766001847083072500,8.726072509765626,2.0445265769958496,-9.893189430236816,0.9394963979721068,6.9961176757812495
1766001847101854000,8.74485400390625,2.3315916061401367,-9.904508590698242,0.7717466950416565,7.014899169921874
1766001847120635400,8.763635498046876,2.652350425720215,-10.002790451049805,0.6679409146308899,7.0336806640625
1766001847139417000,8.7824169921875,2.4324636459350586,-10.092150688171388,2.0559186935424805,7.052462158203124
1766001847158198500,8.801198486328126,2.509232997894287,-10.275650024414062,2.227907419204712,7.07124365234375
