time,seconds_elapsed,z,y,x,t
1766001842124749300,3.767749267578125,0.2107483446598053,-0.6457604169845581,-0.116751529276371,2.01901318359375
1766001842143530800,3.78653076171875,0.2834412455558777,-0.5602393746376038,0.4038579761981964,2.037794677734375
1766001842162312200,3.805312255859375,0.2353356629610061,-0.6103302836418152,0.4009563624858856,2.056576171875
1766001842181094000,3.824093994140625,0.1226311028003692,-0.2483928948640823,0.1306487023830413,2.0753579101562503
1766001842199875300,3.842875244140625,-0.0122172953560948,0.2082285284996032,-0.1126281917095184,2.0941391601562502
1766001842218656800,3.86165673828125,0.006719512399286,0.1454621702432632,-0.1633299738168716,2.1129206542968753
1766001842237438500,3.8804384765625,0.0247400235384702,-0.0240528006106615,-0.1030070707201957,2.1317023925781253
1766001842256220000,3.899219970703125,0.0261144693940877,-0.0345902182161808,0.046807512640953,2.1504838867187503
1766001842284392200,3.92739208984375,0.0259617529809474,0.1500436663627624,0.3339139521121979,2.1786560058593754
1766001842303173600,3.946173583984375,-0.0537560991942882,0.4924333691596985,0.5423715710639954,2.1974375000000004
1766001842321955300,3.964955322265625,-0.1429423540830612,0.8261182308197021,0.7679333686828613,2.2162192382812504
1766001842340736800,3.98373681640625,-0.2390008419752121,1.1585813760757446,1.028314471244812,2.2350007324218755
1766001842359518200,4.002518310546875,-0.3200931549072265,1.4214060306549072,1.2497529983520508,2.2537822265624996
1766001842378300000,4.0212998046875,-0.4514290690422058,1.849774956703186,2.912832260131836,2.2725637207031246
1766001842397081300,4.040081298828125,-0.2616028487682342,2.108323335647583,6.478450298309326,2.2913452148437496
1766001842415862800,4.05886279296875,-0.08116866275668144,4.039725303649902,2.3531274795532227,2.3101267089843747
1766001842434644200,4.077644287109375,0.0992655232548713,0.312686413526535,2.06021785736084,2.3289082031249997
1766001842453426000,4.096426025390625,1.3304635286331177,-2.4249041080474854,1.730808973312378,2.3476899414062498
1766001842472207400,4.115207275390625,0.0319176837801933,-2.3383140563964844,2.3245694637298584,2.3664711914062497
1766001842500379600,4.143379638671875,-0.453719824552536,1.854814529418945,0.0849865600466728,2.3946435546875
1766001842519161000,4.1621611328125,-0.1794415265321731,-0.3143662810325622,-0.9142354726791382,2.413425048828125
1766001842537942800,4.18094287109375,0.1715002804994583,-0.0718529671430587,-1.227609157562256,2.432206787109375
1766001842556724200,4.19972412109375,0.6872228980064392,-1.213101148605347,-1.61489737033844,2.450988037109375
1766001842575505700,4.218505615234375,0.4650208055973053,-2.217210054397583,-1.9734749794006348,2.46976953125
1766001842603678000,4.246677978515625,-0.8290961980819702,-1.250363826751709,-2.037921190261841,2.49794189453125
1766001842622459400,4.26545947265625,-0.6809614896774292,-0.0884990319609642,-1.920177102088928,2.516723388671875
1766001842641241000,4.284240966796875,-0.4639517962932586,0.9803616404533386,-1.7488294839859009,2.5355048828125
1766001842660022500,4.3030224609375,-0.4181369543075561,1.3708568811416626,-1.5333470106124878,2.554286376953125
1766001842678804000,4.321803955078125,-0.4407389461994171,1.622075080871582,-1.271438717842102,2.57306787109375
1766001842697585400,4.34058544921875,-0.4185950756072998,1.7937281131744385,-1.064660906791687,2.591849365234375
1766001842716367000,4.3593671875,-0.2124282270669937,1.67338764667511,-0.8688787817955017,2.610631103515625
1766001842744539400,4.387539306640625,0.0111482823267579,-0.5136609077453613,-0.4172970056533813,2.63880322265625
1766001842763320800,4.40632080078125,0.0864373669028282,-1.4568361043930054,-0.1408806890249252,2.657584716796875
1766001842782102300,4.425102294921875,0.1284343153238296,-1.184390425682068,-0.0043524117209017,2.6763662109375
1766001842800883700,4.4438837890625,0.0517707914113998,-0.2076176702976226,0.104076087474823,2.695147705078125
1766001842819665400,4.46266552734375,-0.0516180731356143,0.853607177734375,0.1897498667240142,2.7139294433593752
1766001842838446800,4.48144677734375,-0.0429132506251335,1.212490200996399,0.3661370873451233,2.732710693359375
1766001842857228300,4.500228271484375,0.0076358099468052,0.9311869740486144,0.6630173325538635,2.7514921875000002
1766001842876010000,4.519010009765625,0.0855210721492767,0.4319577515125274,1.0214422941207886,2.7702739257812503
1766001842894791400,4.53779150390625,0.1534797698259353,0.0136680994182825,1.4174354076385498,2.7890554199218753
1766001842913572900,4.55657275390625,0.2710712552070617,-0.1005636155605316,1.807167053222656,2.8078366699218753
1766001842932354600,4.5753544921875,0.2837466895580292,-0.099189169704914,2.0473897457122803,2.8266184082031245
1766001842951136000,4.594135986328125,0.2005163580179214,0.0089338971301913,2.152458429336548,2.8453999023437495
1766001842969917400,4.61291748046875,0.1748600453138351,0.4024835228919983,2.2066726684570312,2.8641813964843745
1766001842988699000,4.631698974609375,0.0879645273089408,0.7534253597259521,2.1269547939300537,2.8829628906249996
1766001843007480600,4.65048046875,-0.0177150778472423,0.9437097311019896,2.1286346912384038,2.9017443847656246
1766001843026262000,4.669261962890625,0.0328339822590351,0.8591049313545227,1.8543564081192017,2.9205258789062496
1766001843045043500,4.68804345703125,0.2273944169282913,0.6170498132705688,1.6113849878311155,2.9393073730468746
1766001843063825200,4.7068251953125,0.5290089249610901,0.1752418279647827,1.2230277061462402,2.9580891113281247
1766001843082606600,4.725606689453125,0.6652317643165588,-0.1080467104911804,1.1407135725021362,2.9768706054687497
1766001843101388000,4.744387939453125,0.5639809370040894,-0.9823469519615172,0.2034943252801895,2.9956518554687497
1766001843120169500,4.76316943359375,-0.0250454563647508,-1.6339869499206543,-0.5350412130355835,3.0144333496093747
1766001843138951200,4.781951171875,-0.0734564885497093,-1.2944988012313845,-1.551978349685669,3.0332150878906248
1766001843157732600,4.800732666015625,-0.0438295491039752,-0.655228853225708,-2.6151883602142334,3.05199658203125
1766001843176514000,4.81951416015625,-0.2477056682109832,-0.2667188346385956,-3.3341763019561768,3.070778076171875
1766001843195295500,4.83829541015625,-0.5517635941505432,-0.9267582297325134,-4.26009464263916,3.089559326171875
1766001843214077200,4.8570771484375,-0.7388409376144409,-1.758450627326965,-5.249237537384033,3.108341064453125
1766001843232858600,4.875858642578125,-1.21928608417511,-3.062952280044556,-5.425319194793701,3.12712255859375
1766001843251640000,4.89464013671875,-0.7228057384490967,-1.5319725275039673,-3.644495725631714,3.145904052734375
1766001843270421800,4.913421875,0.3310887217521667,-1.0417535305023191,-1.166369915008545,3.164685791015625
1766001843289203200,4.932203125,0.5117519497871399,-1.429347276687622,-0.125303640961647,3.183467041015625
1766001843307984600,4.950984619140625,0.1649334877729416,-0.5726093649864197,0.2441168427467346,3.20224853515625
1766001843326766300,4.969766357421875,0.29214608669281,-0.6625592112541199,0.1457676142454147,3.2210302734375
1766001843345547800,4.9885478515625,0.2576322257518768,-0.2462548613548278,-0.2888626754283905,3.239811767578125
1766001843364329500,5.00732958984375,0.0719293281435966,0.602847158908844,-0.6559923887252808,3.258593505859375
1766001843383111000,5.02611083984375,0.0850629210472107,0.5354993343353271,-0.6459131240844727,3.277374755859375
1766001843401892400,5.044892333984375,0.073151059448719,0.1196531355381012,-0.3242928385734558,3.29615625
1766001843420674000,5.063674072265625,0.0551305450499057,-0.2140317410230636,0.1601229310035705,3.31493798828125
1766001843439455500,5.08245556640625,0.0496327616274356,-0.1842520833015442,0.6375137567520142,3.333719482421875
1766001843458237000,5.10123681640625,-0.0357355885207653,0.3114646673202514,1.015639066696167,3.352500732421875
1766001843477018600,5.1200185546875,-0.1411097645759582,0.8091667294502258,1.34000825881958,3.3712824707031253
1766001843495800000,5.138800048828125,-0.2585485279560089,1.1853067874908447,1.666210055351257,3.3900639648437503
1766001843514581500,5.15758154296875,-0.3761399984359741,1.3258056640625,1.9207879304885864,3.4088454589843753
1766001843533363200,5.17636328125,-0.4462367296218872,2.0060036182403564,3.035463333129883,3.4276271972656245
1766001843552144600,5.19514453125,-0.0920878648757934,2.8500659465789795,4.550255298614502,3.4464084472656253
1766001843570926000,5.213926025390625,1.5903865098953247,3.1512222290039062,1.654298186302185,3.4651899414062504
1766001843589707800,5.232707763671875,0.0314595364034175,-1.3114503622055054,1.7928117513656616,3.4839716796874995
1766001843608489200,5.2514892578125,0.0314595364034175,-5.192884922027588,2.538219451904297,3.5027531738281246
1766001843627270700,5.270270751953125,-0.0387899130582809,1.5217405557632446,0.2705367505550384,3.5215346679687496
1766001843646052000,5.289052001953125,-0.4251618981361389,4.214127063751221,-1.107879638671875,3.5403159179687496
1766001843674224400,5.317224365234375,-0.0387899130582809,-0.4867828786373138,-1.620089769363403,3.5684882812499996
1766001843693006000,5.336006103515625,0.3133736252784729,-0.4203513264656067,-2.045862436294556,3.5872700195312497
1766001843711787500,5.35478759765625,0.6110175251960754,-2.3358705043792725,-2.3520584106445312,3.6060515136718747
1766001843730569000,5.37356884765625,-0.5823068618774414,-1.4035382270812988,-2.250196695327759,3.6248327636718747
1766001843749350700,5.3923505859375,-0.8857539296150208,-0.410119354724884,-1.8412227630615237,3.6436145019531248
1766001843777523000,5.42052294921875,0.3973675370216369,1.549382209777832,-1.272813081741333,3.671786865234375
1766001843796304400,5.439304443359375,0.1168278902769088,1.854509115219116,-1.064660906791687,3.690568359375
1766001843815085800,5.4580859375,-0.1783725172281265,1.8409173488616943,-0.9334777593612672,3.709349853515625
1766001843833867500,5.476867431640625,-0.0517707914113998,1.225318431854248,-0.8244383931159973,3.72813134765625
1766001843852649000,5.49564892578125,0.1052214577794075,0.3514763116836548,-0.6414843797683716,3.746912841796875
1766001843871430400,5.514430419921875,0.1102610900998115,-0.3928624093532562,-0.4018726646900177,3.7656943359375
1766001843890212000,5.533212158203125,0.070096731185913,-0.6500364542007446,-0.1373682171106338,3.78447607421875
1766001843908993500,5.55199365234375,0.1006399691104888,-0.4337903559207916,0.0721584036946296,3.803257568359375
1766001843927775000,5.57077490234375,0.1101083755493164,-0.0770453214645385,0.185321107506752,3.822038818359375
1766001843946556400,5.589556396484375,0.0642935186624527,0.2858083546161651,0.1911243200302124,3.8408203125
1766001843965338000,5.608338134765625,0.0496327616274356,0.5153408050537109,0.0949131175875663,3.85960205078125
1766001843984119600,5.62711962890625,0.0239764433354139,0.6143009066581726,0.0005345066892914,3.878383544921875
1766001844002901000,5.64590087890625,-0.0383317656815052,0.456239640712738,-0.0665079057216644,3.897164794921875
1766001844021682700,5.6646826171875,-0.0200058221817016,-0.0329103395342826,-0.0892626196146011,3.915946533203125
1766001844040464100,5.683464111328125,0.0542142502963542,-0.3811032772064209,-0.0043524117209017,3.93472802734375
1766001844059245600,5.70224560546875,0.0580321550369262,-0.3345248103141784,0.1042288020253181,3.953509521484375
1766001844078027300,5.72102734375,0.0229074284434318,-0.2216675579547882,0.2900844216346741,3.9722912597656252
1766001844096808700,5.73980859375,0.0806341543793678,-0.0744491443037986,0.5483275055885315,3.991072509765625
1766001844115590100,5.758590087890625,0.1201876476407051,0.1083521395921707,0.9272163510322572,4.00985400390625
1766001844134371800,5.777371826171875,0.1227838173508644,0.3004691004753113,1.4579051733016968,4.0286357421875
1766001844153153300,5.7961533203125,0.1757763475179672,0.1182786896824836,2.123900413513184,4.047417236328125
