time,seconds_elapsed,z,y,x,t
1766001844153153300,5.7961533203125,11.875896453857422,-1.8633012771606443,-0.7834397554397583,4.066198486328125
1766001844171934700,5.814934814453125,11.7756929397583,-1.6252050399780271,-1.953875541687012,4.08497998046875
1766001844190716400,5.83371630859375,7.398907661437988,-1.481966495513916,-1.8511073589324951,4.1037614746093745
1766001844209497900,5.852497802734375,2.0865797996521,-0.7583208084106445,0.4931181073188782,4.1225429687499995
1766001844228279300,5.871279296875,-5.013766288757324,-1.104173183441162,3.284217834472656,4.1413244628906245
1766001844247061000,5.89006103515625,-4.648542404174805,-5.15493106842041,5.574178218841553,4.160106201171875
1766001844265842400,5.908842529296875,-5.934783935546875,-4.441488265991211,2.1897616386413574,4.1788876953125
1766001844284624000,5.927623779296875,-5.81025505065918,-6.15806770324707,0.7940848469734192,4.1976689453125
1766001844303405600,5.946405517578125,-4.517200946807861,-1.3278818130493164,-5.605312824249268,4.21645068359375
1766001844322187000,5.96518701171875,-9.149896621704102,5.32908821105957,-7.123586177825928,4.235232177734375
1766001844340968400,5.983968505859375,-14.808393478393556,3.499378204345703,-3.788869619369507,4.254013671875
1766001844359750100,6.002750244140625,-17.71682357788086,-0.1249313354492187,-2.3077540397644043,4.27279541015625
1766001844378531600,6.021531494140625,-20.364887237548828,5.491853713989258,2.4758665561676025,4.29157666015625
1766001844397313000,6.04031298828125,-20.94442749023437,9.273757934570312,7.104096412658691,4.310358154296875
1766001844416094500,6.059094482421875,-16.30722427368164,13.5723237991333,4.505472183227539,4.3291396484375
1766001844434876200,6.077876220703125,-9.48520278930664,18.38571548461914,0.3393921256065368,4.34792138671875
1766001844453657600,6.09665771484375,-4.658463478088379,13.738755226135254,-0.8236361742019653,4.366702880859375
1766001844472439000,6.11543896484375,1.3111552000045776,0.0715188980102539,2.519716262817383,4.385484130859375
1766001844491220700,6.134220703125,9.965656280517578,-14.313015937805176,4.40468168258667,4.404265869140625
1766001844510002200,6.153002197265625,12.965116500854492,-17.06153106689453,6.407009124755859,4.42304736328125
1766001844528784000,6.171783935546875,8.995957374572754,-7.673369407653809,1.9911006689071653,4.4418291015625
1766001844547565300,6.1905654296875,7.235440731048584,-11.528721809387209,-2.666895866394043,4.460610595703125
1766001844566346800,6.2093466796875,2.5538196563720703,-9.024953842163086,0.3313560485839844,4.479391845703125
1766001844585128400,6.22812841796875,0.1531136333942413,-10.06748104095459,3.520707368850708,4.498173583984375
1766001844603910000,6.246909912109375,-0.3111916184425354,-9.193275451660156,1.9827501773834229,4.516955078125
1766001844622691300,6.26569140625,-0.3878593742847442,-9.804692268371582,0.4020477533340454,4.535736572265625
1766001844641473000,6.28447314453125,0.1244347989559173,-9.609695434570312,0.232633352279663,4.554518310546875
1766001844660254500,6.30325439453125,1.028152346611023,-9.405841827392578,0.1152052879333496,4.573299560546875
1766001844679036000,6.322035888671875,1.5992802381515503,-9.827239990234377,-0.2060345411300659,4.5920810546875
1766001844697817600,6.340817626953125,2.0396106243133545,-10.3728666305542,0.5514556169509888,4.61086279296875
1766001844716599000,6.35959912109375,2.450481653213501,-10.322964668273926,1.0509932041168213,4.629644287109375
1766001844735380700,6.378380615234375,2.847348928451538,-10.056391716003418,2.2510695457458496,4.64842578125
1766001844754162200,6.397162109375,3.1676831245422363,-10.268424987792969,3.133085250854492,4.667207275390625
1766001844772943600,6.415943603515625,2.9122939109802246,-9.755141258239746,1.490681529045105,4.68598876953125
1766001844791725300,6.434725341796875,3.301574468612671,-12.349481582641602,-1.226737141609192,4.7047705078124995
1766001844810506800,6.4535068359375,-18.711498260498047,9.336243629455566,-5.939361572265625,4.7235520019531245
1766001844829288200,6.4722880859375,8.048900604248047,40.29314804077149,-3.086663246154785,4.7423332519531245
1766001844848070000,6.49106982421875,2.685165405273437,8.8796968460083,-4.856241703033447,4.761114990234375
1766001844866851300,6.509851318359375,7.101590633392334,30.925241470336918,3.287019968032837,4.779896484375
1766001844885632800,6.5286328125,-24.55631256103516,18.44061851501465,0.6626678705215454,4.798677978515625
1766001844904414500,6.54741455078125,-28.9392032623291,-3.724294662475586,4.971566200256348,4.817459716796875
1766001844923196000,6.56619580078125,-18.63193702697754,-18.480449676513672,3.755774974822998,4.836240966796875
1766001844941977600,6.5849775390625,-9.734940528869627,-8.743125915527344,-5.26728105545044,4.855022705078125
1766001844960759000,6.603759033203125,-2.058122158050537,3.4564685821533203,-3.854246616363525,4.87380419921875
1766001844979540500,6.62254052734375,-0.0502052307128906,7.477182388305664,1.9808639287948608,4.892585693359375
1766001844998322000,6.641322021484375,1.679364562034607,-1.2365436553955078,4.210445880889893,4.9113671875
1766001845017103600,6.660103515625,3.765196323394776,-8.091137886047363,1.6706863641738892,4.930148681640625
1766001845035885000,6.678885009765625,6.909324169158936,-9.447071075439451,-0.3036624193191528,4.94893017578125
1766001845054666500,6.69766650390625,7.619326591491699,-5.04060173034668,0.8439306020736694,4.967711669921875
1766001845073448200,6.7164482421875,4.754424095153809,1.0394363403320312,0.0723474621772766,4.986493408203125
1766001845092229600,6.735229736328125,-0.2047876119613647,5.956221580505371,-2.2903730869293213,5.00527490234375
1766001845111011000,6.754010986328125,-0.879135251045227,5.746420860290527,-5.979391098022461,5.02405615234375
1766001845129792800,6.772792724609375,6.417849540710449,-0.7197608947753906,-6.951696395874023,5.042837890625
1766001845148574200,6.79157421875,10.15288543701172,-4.005408763885498,1.988351345062256,5.061619384765625
1766001845167355600,6.810355712890625,7.17100715637207,-0.4958171844482422,3.9577174186706543,5.08040087890625
1766001845186137300,6.829137451171875,3.116371154785156,0.0557327270507812,2.352135419845581,5.0991826171875
1766001845204918800,6.847918701171875,1.0603821277618408,-0.6637229919433594,-0.6846221089363098,5.1179638671875
1766001845223700200,6.8667001953125,1.520643949508667,0.1237506866455078,-1.2875127792358398,5.136745361328125
1766001845242482000,6.88548193359375,2.87276029586792,-0.4505376815795898,1.3425642251968384,5.155527099609375
1766001845261263400,6.904263427734375,5.786273002624512,-1.2485876083374023,1.3376398086547852,5.17430859375
1766001845280044800,6.923044921875,7.843296051025391,-0.8567867279052734,-0.8108299374580383,5.193090087890625
1766001845298826500,6.941826416015625,7.049233913421631,-0.5001869201660156,-2.469200849533081,5.21187158203125
1766001845317608000,6.96060791015625,2.8504080772399902,0.4112863540649414,-1.6460915803909302,5.230653076171875
1766001845336389600,6.9793896484375,0.409105896949768,-0.8617115020751953,0.879106879234314,5.249434814453125
1766001845355171000,6.998171142578125,0.6389791965484619,-2.138843536376953,1.4689089059829712,5.2682163085937495
1766001845373952500,7.016952392578125,-0.3039307594299316,-1.6001505851745603,1.797898292541504,5.28699755859375
1766001845392734200,7.035734130859375,0.6248791217803955,-2.2473678588867188,2.879502534866333,5.3057792968749995
1766001845411515600,7.054515625,2.048091173171997,-1.49434232711792,1.793370008468628,5.3245607910156245
1766001845430297000,7.073297119140625,1.7909331321716309,-0.2541351318359375,-0.4614272117614746,5.3433422851562495
1766001845449078800,7.092078857421875,-1.8395509719848635,0.3338651657104492,-0.072199560701847,5.3621240234375
1766001845467860200,7.110860107421875,-2.159109115600586,-2.1794309616088867,1.57773756980896,5.3809052734375
1766001845486641700,7.1296416015625,-9.472288131713867,-3.2426586151123047,-1.7433143854141235,5.399686767578125
1766001845505423400,7.14842333984375,-11.36214542388916,-4.62374210357666,-6.121320724487305,5.418468505859375
1766001845524204800,7.167204833984375,-18.301834106445312,6.148445129394531,-7.614549160003662,5.43725
1766001845542986200,7.185986328125,-23.388416290283203,10.893834114074709,-1.1625405550003052,5.456031494140625
1766001845561768000,7.204767822265625,-23.933429718017575,5.844925880432129,3.447162628173828,5.47481298828125
1766001845580549400,7.22354931640625,-18.572139739990234,9.873035430908203,7.104984760284424,5.493594482421875
1766001845599330800,7.242330810546875,-8.956936836242676,23.5062198638916,3.8001441955566406,5.5123759765625
1766001845618112500,7.261112548828125,-1.8405065536499023,15.82713794708252,2.0891273021698,5.53115771484375
1766001845636894000,7.27989404296875,3.2542920112609863,-1.8005590438842771,2.2981181144714355,5.549939208984375
1766001845655675400,7.29867529296875,14.27838897705078,-14.960095405578612,-0.8985176086425781,5.568720458984375
1766001845674457000,7.31745703125,18.82837677001953,-17.721088409423828,1.3131401538848877,5.587502197265625
1766001845693238500,7.336238525390625,9.759936332702637,-7.798156261444092,6.555340766906738,5.60628369140625
1766001845712020200,7.355020263671875,3.247307538986206,-10.115961074829102,-2.360591411590576,5.6250654296875
1766001845730801700,7.3738017578125,-1.0767450332641602,-8.421387672424316,-2.115172863006592,5.643846923828125
1766001845749583000,7.3925830078125,-2.1036062240600586,-8.709226608276367,3.709031105041504,5.662628173828125
1766001845768364800,7.41136474609375,0.0615399777889251,-9.09978485107422,3.7423930168151855,5.681409912109375
1766001845787146200,7.430146240234375,2.152947187423706,-10.241891860961914,1.119418740272522,5.70019140625
1766001845815318500,7.458318603515625,3.315863132476806,-10.605742454528809,0.626854658126831,5.72836376953125
1766001845834100200,7.477100341796875,2.323988437652588,-10.30578327178955,1.0371851921081543,5.7471455078125
1766001845852881700,7.495881591796875,1.3683528900146484,-9.769336700439451,1.8110352754592896,5.7659267578125
1766001845871663000,7.5146630859375,0.8425908088684082,-9.484373092651367,1.8232839107513428,5.784708251953125
1766001845890444800,7.53344482421875,1.4316339492797852,-10.090656280517578,2.552854537963867,5.803489990234375
1766001845909226200,7.552226318359375,2.291417360305786,-10.500097274780272,2.189594268798828,5.822271484375
1766001845937398500,7.5803984375,2.279482364654541,-10.499069213867188,1.469419240951538,5.850443603515625
1766001845956180200,7.59918017578125,-0.8049209117889404,-12.94433879852295,-1.1973187923431396,5.8692253417968745
1766001845974961700,7.617961669921875,-15.440168380737305,16.34703826904297,-7.602841377258301,5.8880068359374995
1766001845993743000,7.6367431640625,3.0052852630615234,35.83329772949219,0.5774393081665039,5.9067883300781245
1766001846021915600,7.66491552734375,0.8224256038665771,9.223333358764648,4.6962175369262695,5.934960693359375
1766001846040697000,7.683697021484375,-5.267315864562988,45.6479721069336,6.4883341789245605,5.9537421875
1766001846059478500,7.702478515625,-14.375852584838867,5.053436279296875,-0.5341418385505676,5.972523681640625
1766001846078260200,7.72126025390625,-15.229689598083496,-8.338730812072754,-1.9172580242156985,5.991305419921875
1766001846097041700,7.740041748046875,-9.72844696044922,-7.370565414428711,-5.403095245361328,6.0100869140625
1766001846115823000,7.758822998046875,-3.7887966632843018,-1.7586679458618164,-3.1060116291046143,6.0288681640625
1766001846134604800,7.777604736328125,-1.0373401641845703,-1.0969085693359375,1.105210781097412,6.04764990234375
1766001846153386200,7.79638623046875,1.2673839330673218,-3.624636173248291,4.420446872711182,6.066431396484375
