time,seconds_elapsed,z,y,x,t
1766000606680648400,9.0596484375,-0.1142317131161689,-0.0924696549773216,-0.1582903414964676,7.108419677734376
1766000606699429000,9.07842919921875,-0.1631008982658386,-0.0742964297533035,-0.3543779253959656,7.127200439453126
1766000606718209500,9.09720947265625,-0.2391535639762878,-0.0869718715548515,-0.5420661568641663,7.145980712890625
1766000606736990200,9.115990234375,-0.3129154741764068,-0.1469893306493759,-0.7216603755950928,7.164761474609375
1766000606755770600,9.1347705078125,-0.3927860558032989,-0.2935968935489654,-0.8861356973648071,7.183541748046875
1766000606774551000,9.153551025390623,-0.4856374859809875,-0.4237110912799835,-1.0692424774169922,7.202322265624999
1766000606793331700,9.172331787109377,-0.5865828990936279,-0.4858665764331817,-1.264566421508789,7.221103027343752
1766000606812112100,9.191112060546876,-0.6624828577041626,-0.4278344213962555,-1.458210587501526,7.239883300781252
1766000606840283000,9.219282958984374,-0.7786998748779297,-0.2001345753669738,-1.7498985528945925,7.26805419921875
1766000606859063600,9.2380634765625,-0.846505880355835,-0.0649807378649711,-1.9184972047805784,7.286834716796876
1766000606877844000,9.256843994140626,-0.9153808951377868,0.0825431048870086,-2.064646482467652,7.305615234375002
1766000606896624600,9.275624755859376,-0.9592103958129884,0.1443931609392166,-2.029369115829468,7.3243959960937515
1766000606924795400,9.30379541015625,-0.9185879230499268,0.4626537263393402,-1.1216241121292114,7.352566650390625
1766000606943575800,9.322575927734375,-0.346513032913208,0.7260891199111938,0.7390699982643127,7.371347167968751
1766000606962356500,9.3413564453125,0.8252783417701721,1.4131592512130735,0.3169624507427215,7.390127685546877
1766000606981137000,9.360136962890625,0.4948004782199859,1.099632978439331,0.5353466272354126,7.408908203125001
1766000606999917300,9.378917236328125,0.9025527238845824,-0.390571653842926,0.5220603346824646,7.4276884765625
1766000607018698000,9.397697998046874,0.9294307827949524,-1.472718596458435,0.5904771685600281,7.44646923828125
1766000607037478400,9.416478515625,0.8576541543006897,-0.9885319471359253,0.6463713049888611,7.465249755859376
1766000607056259000,9.435259033203126,0.9692896604537964,-1.4255293607711792,0.6107884049415588,7.484030273437502
1766000607075039500,9.45403955078125,0.9295834898948668,-0.5515345335006714,0.497167557477951,7.502810791015626
1766000607093820200,9.472820068359376,0.9126319885253906,0.1249982044100761,0.3971384763717651,7.521591308593751
1766000607112600600,9.4916005859375,0.9637919068336488,0.2735910713672638,0.2835176289081573,7.540371826171875
1766000607131381200,9.51038134765625,0.9717331528663636,-0.1384372264146804,0.1492800861597061,7.559152587890625
1766000607150161700,9.52916162109375,0.8946114778518677,-0.9096540212631226,0.029245151206851,7.577932861328127
1766000607168942300,9.5479423828125,0.8020654320716858,-1.593669891357422,-0.0665079057216644,7.596713623046877
1766000607187722800,9.56672265625,0.7376192212104797,-1.5550326108932495,-0.1850156635046005,7.615493896484376
1766000607206503400,9.58550341796875,0.6898190379142761,-1.5550326108932495,-0.33162322640419,7.634274658203126
1766000607225283800,9.604283935546874,0.6258309483528137,-1.5550326108932495,-0.5125918984413147,7.65305517578125
1766000607244064500,9.623064453125,0.559399425983429,-1.1601085662841797,-0.7118865251541138,7.671835693359376
1766000607262845000,9.641844970703126,0.4644099473953247,-0.752203643321991,-0.9223294854164124,7.690616210937502
1766000607281625600,9.66062548828125,0.3116937577724457,-0.4595993757247925,-1.1043671369552612,7.7093967285156255
1766000607300406000,9.679406005859375,0.1637117564678192,-0.2422842383384704,-1.286710262298584,7.728177246093751
1766000607319186700,9.698186767578123,0.0082466742023825,-0.0373391099274158,-1.4895174503326416,7.746958007812499
1766000607337967000,9.716967041015623,-0.1794415265321731,0.0674242004752159,-1.6958370208740234,7.765738281249999
1766000607356747800,9.735747802734377,-0.3535379767417907,-0.0484873913228511,-1.8659628629684448,7.7845190429687525
1766000607375528200,9.754528076171876,-0.5108356475830078,-0.2894735336303711,-1.9921064376831052,7.803299316406252
1766000607394308900,9.773308837890625,-0.6892082095146179,-0.5519927144050598,-2.080070972442627,7.822080078125
1766000607413089300,9.79208935546875,-0.8449786901473999,-0.8661298751831055,-2.1129050254821777,7.840860595703126
1766000607431870000,9.810869873046874,-0.9590576887130736,-1.2231804132461548,-2.1032838821411133,7.85964111328125
1766000607450650400,9.829650390625,-1.0361794233322144,-1.582979679107666,-2.094731569290161,7.878421630859376
1766000607469431000,9.84843115234375,-1.0682498216629028,-1.561981201171875,-2.0820562839508057,7.897202392578126
1766000607488211500,9.86721142578125,-1.057559609413147,-1.6987385749816897,-2.0432662963867188,7.915982666015625
1766000607506992000,9.8859921875,-1.0293071269989014,-1.540982723236084,-1.955912709236145,7.934763427734375
1766000607535163000,9.914162841796877,-0.9523382186889648,-1.077489137649536,-1.6689589023590088,7.962934082031253
1766000607553943600,9.932943603515625,-0.8649845123291016,-0.6834813356399536,-1.3406190872192385,7.981714843750001
1766000607572724000,9.951723876953125,-0.6520981788635254,-0.3476584255695343,-0.941113531589508,8.000495117187501
1766000607591504600,9.970504638671876,-0.4225656986236572,0.1081994250416755,-0.7132610082626343,8.019275878906253
1766000607610285000,9.98928515625,-0.3935496211051941,0.3129918277263641,-0.7225766777992249,8.038056396484375
1766000607629065700,10.008065673828124,-0.4784598350524902,-0.0002290742995683,-0.7274636030197144,8.056836914062501
1766000607647846100,10.02684619140625,-0.3822486400604248,-0.3299433290958404,-0.6822596192359924,8.075617431640627
1766000607666626800,10.045626708984376,-0.1798996776342392,-0.4056905806064605,-0.5568795800209045,8.094397949218752
1766000607685407200,10.0644072265625,-0.1492037177085876,-0.285502940416336,-0.469525933265686,8.113178466796874
1766000607713578000,10.092577880859375,-0.1264490038156509,-0.0909424945712089,-0.4070650041103363,8.14134912109375
1766000607732358700,10.111358642578123,-0.0928514450788497,-0.0898734778165817,-0.3888917863368988,8.160129882812498
1766000607751139300,10.130139404296877,-0.0807868689298629,-0.1474474817514419,-0.381866842508316,8.178910644531253
1766000607769919700,10.148919677734376,-0.070096731185913,-0.1947895139455795,-0.367511510848999,8.197690917968753
1766000607788700400,10.167700439453125,-0.0493273325264453,-0.0955239832401275,-0.3424660563468933,8.216471679687501
1766000607807480800,10.186480712890624,-0.0073303775861859,-0.0133626665920019,-0.3120755553245544,8.235251953125001
1766000607826261500,10.205261474609374,0.0641408041119575,-0.0784197673201561,-0.2725220620632171,8.25403271484375
1766000607845042000,10.2240419921875,0.1215620934963226,-0.2205985486507415,-0.2170860767364502,8.272813232421875
1766000607863822600,10.242822509765626,0.1649334877729416,-0.2914588451385498,-0.1651625633239746,8.29159375
1766000607882603000,10.26160302734375,0.1997527778148651,-0.2725220620632171,-0.1227074638009071,8.310374267578126
1766000607901383700,10.2803837890625,0.2315177470445633,-0.196774810552597,-0.083306685090065,8.329155029296874
1766000607920164000,10.2991640625,0.273667424917221,-0.2100611329078674,-0.0455857850611209,8.347935302734374
1766000607938944800,10.31794482421875,0.3066541254520416,-0.2461021542549133,-0.0170278549194335,8.366716064453126
1766000607957725200,10.33672509765625,0.310166597366333,-0.2109774202108383,-0.0023671009112149,8.385496337890626
1766000607976505900,10.355505859375,0.3037525117397308,-0.1198058575391769,0.004657844081521,8.404277099609377
1766000607995286300,10.374286376953124,0.3045161068439483,-0.0355065166950225,0.0209984760731458,8.4230576171875
1766000608014067000,10.39306689453125,0.3121519088745117,0.0443640537559986,0.0455857850611209,8.441838134765625
1766000608032847400,10.411847412109376,0.3135263621807098,0.0342847853899002,0.0703258067369461,8.46061865234375
1766000608051628000,10.4306279296875,0.3107774555683136,0.0106137758120894,0.0881936028599739,8.479399169921876
1766000608070408700,10.44940869140625,0.3043633699417114,0.0261908266693353,0.0857501402497291,8.498179931640625
1766000608089189000,10.468189208984375,0.304974228143692,0.0286342874169349,0.0796414986252784,8.51696044921875
1766000608107969800,10.4869697265625,0.2990183234214782,0.0269544087350368,0.0732274129986763,8.535740966796876
1766000608126750200,10.505750244140623,0.301003634929657,-0.0012980876490473,0.067118763923645,8.554521484374998
1766000608145531000,10.52453076171875,0.2953531146049499,-0.0565813519060611,0.0646753087639808,8.573302001953127
1766000608164311300,10.543311279296876,0.2878700196743011,-0.0585666596889495,0.0765871703624725,8.592082519531253
1766000608183092000,10.562092041015624,0.2889390289783478,-0.072921983897686,0.0900261998176574,8.610863281250001
1766000608201872400,10.580872314453124,0.2984074354171753,-0.0965929925441742,0.0999527499079704,8.629643554687501
1766000608220653000,10.599653076171874,0.3072649836540222,-0.117667831480503,0.1089630052447319,8.648424316406249
1766000608239433500,10.61843359375,0.3080285787582397,-0.1608865112066269,0.1117118969559669,8.667204833984375
1766000608258214100,10.637214111328126,0.3123046159744262,-0.1749363988637924,0.1133917719125747,8.6859853515625
1766000608276994600,10.65599462890625,0.2968802750110626,-0.1075885593891143,0.1162933856248855,8.704765869140626
1766000608295775200,10.674775146484375,0.304974228143692,-0.0119882216677069,0.1217911690473556,8.723546386718752
1766000608314555600,10.6935556640625,0.2919933497905731,0.0405461490154266,0.1283579617738723,8.742326904296874
1766000608333336300,10.71233642578125,0.2918406426906585,0.0527634471654892,0.1390480995178222,8.761107666015626
1766000608352116700,10.73111669921875,0.234419360756874,0.0988837331533432,0.1462257504463195,8.779887939453126
1766000608370897400,10.7498974609375,0.2157879769802093,0.1049923822283744,0.148363783955574,8.798668701171877
1766000608389677800,10.768677734375,0.2073885947465896,0.1048396676778793,0.1405752599239349,8.817448974609377
1766000608408458500,10.78745849609375,0.1936441361904144,0.1017853468656539,0.1332448869943618,8.836229736328125
1766000608436629200,10.815629150390626,0.1858556121587753,0.0585666596889495,0.1216384470462799,8.864400390625
1766000608455410000,10.834409912109376,0.187382772564888,0.011530072428286,0.1202640011906623,8.883181152343752
1766000608474190300,10.8531904296875,0.1834121495485305,-0.0263435430824756,0.1175151094794273,8.901961669921874
1766000608492971000,10.871970947265623,0.1640172004699707,-0.0399352833628654,0.1098792999982833,8.9207421875
1766000608511751400,10.89075146484375,0.1430950760841369,-0.0158061254769563,0.0996473208069801,8.939522705078126
1766000608530532000,10.909531982421877,0.1304196268320083,0.0049632764421403,0.0926223695278167,8.958303222656252
1766000608549312500,10.9283125,0.1084285005927085,0.0071013029664754,0.0805577933788299,8.977083740234377
1766000608568093200,10.94709326171875,0.0861319303512573,0.034132070839405,0.0651334598660469,8.995864501953125
1766000608586873900,10.965873779296874,0.0717766135931015,0.0298560168594121,0.0539851747453212,9.014645019531251
1766000608605654300,10.984654296875,0.0702494531869888,0.018860450014472,0.048334676772356,9.033425537109377
1766000608624435000,11.00343505859375,0.0667369738221168,0.0141262477263808,0.0443640537559986,9.052206298828125
1766000608643215400,11.02221533203125,0.058490302413702,0.0211511924862861,0.0443640537559986,9.070986572265625
1766000608661996000,11.04099609375,0.0519235059618949,0.0133626665920019,0.0399352833628654,9.089767333984376
1766000608680776400,11.0597763671875,0.0441349819302558,0.0301614478230476,0.0387135557830333,9.108547607421876
1766000608699557000,11.07855712890625,0.0368046015501022,0.0494036898016929,0.0385608375072479,9.127328369140624
