time,seconds_elapsed,z,y,x,t
1766000602586496800,4.965496826171875,-0.2863428592681885,-0.0523052960634231,-0.5790234804153442,3.01426806640625
1766000602605277200,4.984277099609375,-0.3709476292133331,0.0268016923218965,-0.7005855441093445,3.0330483398437496
1766000602624057900,5.003057861328125,-0.4893026947975158,0.1514181047677993,-0.8149699568748474,3.0518291015625003
1766000602652228600,5.031228515625,-0.6620246767997742,0.4053851366043091,-0.9896773099899292,3.079999755859375
1766000602671009000,5.050009033203125,-0.7383828163146973,0.3624718785285949,-1.0950515270233154,3.0987802734375
1766000602689789400,5.06878955078125,-0.7649554014205933,0.252210795879364,-1.19630229473114,3.1175607910156247
1766000602708569900,5.08756982421875,-0.8281798958778381,0.215711623430252,-1.3184752464294434,3.1363410644531253
1766000602727350500,5.1063505859375,-0.9037744402885436,0.3281107544898987,-1.454698085784912,3.155121826171875
1766000602746131000,5.125130859375,-0.943786084651947,0.4215730428695678,-1.580383539199829,3.173902099609375
1766000602764911600,5.14391162109375,-0.9480621218681335,0.4260018169879913,-1.6408591270446775,3.192682861328125
1766000602783692000,5.162692138671875,-0.9300416111946106,0.4117992222309112,-1.6704860925674438,3.2114633789062497
1766000602802472400,5.181472412109375,-0.8947641849517822,0.1721875071525573,-0.5547415614128113,3.2302436523437503
1766000602821253000,5.200253173828125,-0.0688750073313713,0.1998291462659835,0.8804852366447449,3.2490244140625
1766000602840033500,5.219033447265625,0.5464185476303101,1.26731538772583,0.0530688762664794,3.2678046875
1766000602858814000,5.23781396484375,-0.1270598769187927,1.5483131408691406,0.4748710095882416,3.286585205078125
1766000602877594600,5.2565947265625,0.2370155304670334,0.2593884468078613,0.4666243195533752,3.3053659667968747
1766000602896375000,5.275375,0.4269944727420807,-0.4614319801330566,0.4818959534168243,3.3241462402343753
1766000602915155500,5.294155517578125,0.2512181401252746,-0.7274636030197144,0.4716639816761017,3.3429267578125
1766000602933936000,5.31293603515625,0.2758054435253143,-0.5923097729682922,0.4015672206878662,3.361707275390625
1766000602952716500,5.331716552734375,0.314748078584671,-0.3479638397693634,0.3603338599205017,3.38048779296875
1766000602971497000,5.3504970703125,0.3474293351173401,-0.1439350098371505,0.4056905806064605,3.3992683105468746
1766000602990277600,5.369277587890625,0.4027126133441925,0.1117118969559669,0.4412734508514404,3.4180488281250003
1766000603009058000,5.38805810546875,0.389579027891159,0.0507781356573104,0.4941132366657257,3.436829345703125
1766000603027838500,5.40683837890625,0.4816668927669525,-0.1755472719669342,0.5985711216926575,3.455609619140625
1766000603046619100,5.425619140625,0.5795579552650452,-0.3247509896755218,0.7248674035072327,3.474390380859375
1766000603065399600,5.444399658203125,0.6520981788635254,-0.4304305911064148,0.8039743900299072,3.4931708984374996
1766000603084180000,5.463179931640625,0.6417134404182434,-0.4417316019535064,0.8461240530014038,3.5119511718750003
1766000603102960600,5.481960693359375,0.5908589363098145,-0.1637881249189376,0.8184824585914612,3.53073193359375
1766000603121741000,5.500740966796875,0.5312996506690979,0.1346193253993988,0.7688496708869934,3.54951220703125
1766000603140521500,5.519521484375,0.5261073112487793,0.18990258872509,0.7547997832298279,3.5682927246093747
1766000603159302100,5.53830224609375,0.5500837564468384,0.0060322894714772,0.7685442566871643,3.5870734863281246
1766000603178082600,5.55708251953125,0.5415316224098206,-0.2464075833559036,0.7631992101669312,3.6058537597656253
1766000603196863000,5.575863037109375,0.4836521744728088,-0.3586539924144745,0.7176897525787354,3.62463427734375
1766000603215643600,5.5946435546875,0.3900371491909027,-0.2951240539550781,0.6327795386314392,3.643414794921875
1766000603234424000,5.613424072265625,0.306043267250061,-0.1115591824054718,0.5374846458435059,3.6621953124999997
1766000603253204500,5.63220458984375,0.2657261788845062,0.0640644431114196,0.4347066581249237,3.6809758300781246
1766000603271985200,5.650985107421875,0.2306014597415924,0.0944549664855003,0.3572795391082763,3.6997563476562503
1766000603300156000,5.679156005859375,0.1902843713760376,-0.1769217103719711,0.2378554791212082,3.72792724609375
1766000603318936300,5.697936279296875,0.153174340724945,-0.3363574147224426,0.1515708267688751,3.74670751953125
1766000603337716700,5.716716796875,0.1007926911115646,-0.3195586502552032,0.0552069060504436,3.7654880371093746
1766000603356497400,5.735497314453125,0.0320704020559787,-0.1966221034526825,-0.0442113392055034,3.7842685546875003
1766000603375277800,5.75427783203125,-0.0270307660102844,-0.0947603955864906,-0.151112675666809,3.803049072265625
1766000603394058200,5.773058349609375,-0.0852156355977058,-0.0654388889670372,-0.2658025324344635,3.82182958984375
1766000603412839000,5.7918388671875,-0.150883600115776,-0.0923169404268264,-0.3830885887145996,3.840610107421875
1766000603431619300,5.810619384765625,-0.2089157551527023,-0.1291215419769287,-0.5073995590209961,3.8593906249999996
1766000603450400000,5.82939990234375,-0.2553414702415466,-0.1254563480615615,-0.6346121430397034,3.8781711425781253
1766000603469180400,5.848180419921875,-0.3223838806152344,-0.000992655288428,-0.7813724279403687,3.89695166015625
1766000603487960800,5.8669609375,-0.4100429713726043,0.145614892244339,-0.9374483823776244,3.915732177734375
1766000603506741500,5.885741455078125,-0.485942929983139,0.194484069943428,-1.0713804960250854,3.9345126953125
1766000603525522000,5.90452197265625,-0.5474875569343567,0.1417969912290573,-1.1891247034072876,3.9532932128906246
1766000603544302300,5.92330224609375,-0.5992583632469177,-0.0135153830051422,-1.281212568283081,3.9720734863281253
1766000603563083000,5.9420830078125,-0.6270527243614197,-0.1150716543197631,-1.320155143737793,3.990854248046875
1766000603581863400,5.960863525390625,-0.6652317643165588,-0.0061850058846175,-1.3670389652252195,4.009634765625
1766000603610034200,5.9890341796875,-0.7568614482879639,0.064828023314476,-1.401247501373291,4.037805419921875
1766000603628814600,6.007814697265625,-0.7478511929512024,0.1414915472269058,-1.4336233139038086,4.0565859374999995
1766000603647595300,6.02659521484375,-0.7739656567573547,0.2541961073875427,-1.481881618499756,4.075366455078125
1766000603666375700,6.045375732421875,-0.814588189125061,0.4258491098880768,-1.5713733434677124,4.09414697265625
1766000603685156000,6.064156005859375,-0.822834849357605,0.1150716543197631,-0.5399280786514282,4.11292724609375
1766000603703936800,6.082936767578125,0.187382772564888,0.075212724506855,0.3151298761367798,4.1317080078125
1766000603722717200,6.10171728515625,0.3619373738765716,0.8607848286628723,0.2100611329078674,4.1504885253906245
1766000603741497600,6.12049755859375,0.206319585442543,0.8804852366447449,0.5826886296272278,4.169268798828125
1766000603760278300,6.1392783203125,0.3750709891319275,0.241062507033348,0.630946934223175,4.188049560546875
1766000603779058700,6.15805859375,0.2614501118659973,-0.0411570146679878,0.6384300589561462,4.206829833984375
1766000603797839000,6.176839111328125,0.3006981909275055,-0.0599411055445671,0.6129264235496521,4.2256103515625
1766000603816619800,6.195619873046875,0.3543015718460083,0.1392008066177368,0.5231293439865112,4.2443911132812495
1766000603835400200,6.214400146484375,0.2698495090007782,0.1961639523506164,0.4935023784637451,4.26317138671875
1766000603854180900,6.233180908203125,0.2852738499641418,-0.0820849537849426,0.5574904680252075,4.2819521484375
1766000603872961300,6.251961181640625,0.3402516841888428,-0.1373682171106338,0.6449968218803406,4.300732421875
1766000603891741700,6.27074169921875,0.3019199073314667,0.0573449321091175,0.6848557591438293,4.319512939453125
1766000603910522400,6.2895224609375,0.3165806829929352,0.1999818533658981,0.7273108959197998,4.3382937011718745
1766000603929302800,6.308302734375,0.4363101720809936,0.2329685539007187,0.775263786315918,4.357073974609375
1766000603948083200,6.327083251953125,0.4889972507953644,0.1078939884901046,0.7793871164321899,4.3758544921875
1766000603966864000,6.34586376953125,0.4728093445301056,-0.1101847365498542,0.7460949420928955,4.394635009765625
1766000603985644300,6.364644287109375,0.430048793554306,-0.3003163933753967,0.7161626219749451,4.41341552734375
1766000604004424700,6.3834248046875,0.3854556679725647,-0.2775616943836212,0.6895899772644043,4.432196044921875
1766000604023205400,6.402205322265625,0.347123920917511,-0.1422551423311233,0.6746237874031067,4.4509765625
1766000604041985800,6.42098583984375,0.3451386094093323,-0.0403934344649314,0.6503419280052185,4.469757080078125
1766000604060766500,6.439766357421875,0.3448331654071808,-0.0860555768013,0.6141481995582581,4.48853759765625
1766000604079547000,6.458546875,0.3781253099441528,-0.3093266487121582,0.5787180066108704,4.507318115234375
1766000604098327300,6.477327392578125,0.4436405599117279,-0.4490619599819183,0.5863538384437561,4.5260986328125
1766000604117108000,6.49610791015625,0.5215258002281189,-0.4947241246700287,0.5716930627822876,4.544879150390625
1766000604135888400,6.514888427734375,0.5119046568870544,-0.6561451554298401,0.557337760925293,4.56365966796875
1766000604154668800,6.533668701171875,0.4506655037403106,-0.5231293439865112,0.4776198863983154,4.58243994140625
1766000604173449500,6.552449462890625,0.2719875574111938,-0.0947603955864906,0.3665952384471893,4.601220703125
1766000604192230000,6.57122998046875,0.0956003367900848,0.3533089160919189,0.2508363425731659,4.620001220703125
1766000604211010300,6.59001025390625,-0.037720900028944,0.4156171381473541,0.1572213172912597,4.638781494140625
1766000604229791000,6.608791015625,-0.0931568816304206,0.1039233729243278,0.0927750915288925,4.657562255859375
1766000604248571400,6.6275712890625,-0.1710421442985534,-0.1975383907556533,0.0185550171881914,4.676342529296875
1766000604276742100,6.6557421875,-0.3602575063705444,-0.0669660493731498,-0.1471420526504516,4.7045134277343745
1766000604295522800,6.674522705078125,-0.4515817761421203,0.1937204897403717,-0.2879463732242584,4.7232939453125
1766000604314303200,6.69330322265625,-0.5120574235916138,0.33162322640419,-0.4168388545513153,4.742074462890625
1766000604333083600,6.712083740234375,-0.5071704983711243,0.2719111740589142,-0.5347357392311096,4.76085498046875
1766000604351864300,6.7308642578125,-0.4888445436954498,0.0446694865822792,-0.6307942271232605,4.779635498046875
1766000604370644700,6.749644775390625,-0.4440986812114715,-0.1233183294534683,-0.7292962074279785,4.7984160156249995
1766000604389425200,6.768425048828125,-0.4269944727420807,-0.1743255406618118,-0.8584941029548645,4.8171962890625
1766000604408205800,6.787205810546875,-0.4474584460258484,-0.1726456582546234,-0.9973130822181702,4.83597705078125
1766000604426986200,6.805986328125,-0.4810560047626495,-0.1346193253993988,-1.1456005573272705,4.854757568359375
1766000604445766700,6.8247666015625,-0.5378664135932922,-0.1098792999982833,-1.2677735090255735,4.873537841796875
1766000604464547300,6.84354736328125,-0.5873464941978455,-0.0365755297243595,-1.3542108535766602,4.8923186035156245
1766000604492718000,6.871718017578125,-0.6714931130409241,0.0692567974328994,-1.4519492387771606,4.9204892578125
1766000604511498500,6.89049853515625,-0.7345649003982544,0.1037706509232521,-1.4899755716323853,4.939269775390625
1766000604530279200,6.909279052734375,-0.8394809365272522,0.4200458824634552,-1.6284891366958618,4.95805029296875
1766000604549059600,6.9280595703125,-1.0210604667663574,0.3733147382736206,-0.5787180066108704,4.976830810546875
1766000604567840000,6.946840087890625,-0.5012145638465881,0.9991456866264344,0.367511510848999,4.995611328125
1766000604586620700,6.96562060546875,-0.0163406319916248,1.4418699741363523,0.0185550171881914,5.014391845703125
1766000604605401000,6.984401123046875,0.1201876476407051,1.073060393333435,0.2769508063793182,5.03317236328125
