time,seconds_elapsed,z,y,x,t
1765999887867136800,27.99713671875,-0.0699440166354179,0.0628427118062973,-0.0391717031598091,25.305061523437498
1765999887885916200,28.015916259765625,-0.0742200687527656,0.0741437152028083,-0.0420733131468296,25.323841064453124
1765999887904695300,28.0346953125,-0.0746782198548317,0.0822376683354377,-0.046807512640953,25.342620117187497
1765999887923474700,28.053474609375,-0.070096731185913,0.0607046857476234,-0.0442113392055034,25.3613994140625
1765999887942254000,28.072254150390624,-0.0644462332129478,0.0410043001174926,-0.0365755297243595,25.380178955078122
1765999887961033200,28.091033203125,-0.0607810467481613,0.0466547980904579,-0.0289397183805704,25.3989580078125
1765999887979812600,28.1098125,-0.0543669648468494,0.0602465383708477,-0.0158061254769563,25.4177373046875
1765999887998592000,28.128592041015622,-0.0456621423363685,0.0570394992828369,-0.0017562361899763,25.43651684570312
1765999888017371100,28.14737109375,-0.0343611426651477,0.034132070839405,0.0122936535626649,25.455295898437498
1765999888036150500,28.166150634765625,-0.0152716198936104,0.0237473677843809,0.025427246466279,25.474075439453124
1765999888054930000,28.184929931640625,0.0004581485991366,-0.0006872228696011,0.0396298542618751,25.492854736328123
1765999888073709000,28.203708984375,0.0076358099468052,-0.0116827888414263,0.0547487549483776,25.5116337890625
1765999888092488400,28.222488525390624,0.0149661870673298,-0.0310777463018894,0.0642171576619148,25.530413330078122
1765999888111267600,28.241267578125,0.0369573198258876,-0.1039233729243278,0.0758235901594162,25.5491923828125
1765999888130047000,28.260046875,0.0372627526521682,-0.1964693814516067,0.0872773081064224,25.5679716796875
1765999888148826400,28.278826416015622,0.0210748352110385,-0.155236005783081,0.1034652218222618,25.58675122070312
1765999888167605500,28.29760546875,-0.0009162971982732,-0.0264962594956159,0.1169042438268661,25.6055302734375
1765999888186385000,28.316385009765625,-0.0122172953560948,0.0874300226569175,0.1300378441810608,25.624309814453124
1765999888205164300,28.335164306640625,-0.013133592903614,0.1191949918866157,0.1366046369075775,25.643089111328123
1765999888223943400,28.353943359375,-0.0323758348822593,0.109115719795227,0.1300378441810608,25.661868164062497
1765999888242722800,28.372722900390624,-0.0435241162776947,0.1152243688702583,0.1243873387575149,25.680647705078123
1765999888261502200,28.391502197265623,-0.0514653585851192,0.1395062506198883,0.117209680378437,25.699427001953122
1765999888280281300,28.41028125,-0.0667369738221168,0.1596647799015045,0.1126281917095184,25.7182060546875
1765999888299060700,28.429060791015623,-0.0690277218818664,0.0808632224798202,0.1005636155605316,25.73698559570312
1765999888317840100,28.447840087890626,-0.0687222853302955,-0.0226783547550439,0.081015944480896,25.755764892578124
1765999888336619300,28.466619384765625,-0.0783434063196182,-0.0875827372074127,0.0678823515772819,25.774544189453124
1765999888355398700,28.485398681640625,-0.0820086002349853,-0.0901789143681526,0.0484873913228511,25.793323486328124
1765999888374178000,28.504177978515624,-0.0812450125813484,-0.0944549664855003,0.03138317912817,25.812102783203123
1765999888392957200,28.522957275390624,-0.0745255053043365,-0.1413388401269912,0.028176138177514,25.830882080078123
1765999888411736600,28.541736572265624,-0.1009454056620597,-0.1987601220607757,0.0246636662632226,25.849661376953122
1765999888430516000,28.560515869140627,-0.1171333193778991,-0.2161697745323181,0.0145843969658017,25.868440673828125
1765999888449295000,28.579295166015623,-0.1360701322555542,-0.2236528694629669,0.0043524117209017,25.88721997070312
1765999888468074500,28.598074462890622,-0.157755821943283,-0.2494619041681289,-0.0045051276683807,25.90599926757812
1765999888486854000,28.61685400390625,-0.1794415265321731,-0.2581667304039001,-0.0067958706058561,25.92477880859375
1765999888505633300,28.63563330078125,-0.2002109289169311,-0.2358701676130294,-0.0005345066892914,25.94355810546875
1765999888524412400,28.654412353515625,-0.2130390852689743,-0.1831830739974975,0.0196240302175283,25.962337158203123
1765999888543191800,28.67319189453125,-0.2203694730997085,-0.1300378441810608,0.0674242004752159,25.98111669921875
1765999888561971000,28.691970947265624,-0.2021962404251098,-0.0907897800207138,0.1556941568851471,25.999895751953122
1765999888580750300,28.710750244140623,-0.1487455666065216,-0.0095447618514299,0.2971093654632568,26.018675048828122
1765999888599529700,28.72952978515625,-0.0523816533386707,0.0355065166950225,0.4786889255046844,26.037454589843747
1765999888618309000,28.74830908203125,0.0699440166354179,0.0666606202721595,0.7056251764297485,26.056233886718747
1765999888637088300,28.767088134765626,0.2313650399446487,0.0370336771011352,0.9612720608711244,26.075012939453124
1765999888655867600,28.78586767578125,0.430048793554306,-0.1243873387575149,1.223791241645813,26.09379248046875
1765999888674646800,28.804646728515625,0.6255255341529846,-0.6257545948028564,1.4032328128814695,26.112571533203123
1765999888693426200,28.82342626953125,0.8350521326065063,-0.9579123258590698,1.3152682781219482,26.13135107421875
1765999888712205600,28.84220556640625,0.8868229389190674,-0.871627688407898,1.1017709970474243,26.15013037109375
1765999888730984700,28.860984619140623,0.8190169334411621,-0.8311578631401062,0.857119619846344,26.168909423828122
1765999888749764000,28.87976416015625,0.8655954003334045,-0.8740711212158203,0.5073995590209961,26.187688964843748
1765999888768543500,28.89854345703125,0.9601266980171204,-1.0244965553283691,-0.0770453214645385,26.206468261718747
1765999888787322600,28.917322509765626,0.8588758707046509,-1.3661227226257324,-0.9036980867385864,26.225247314453124
1765999888806102000,28.93610205078125,0.4796815812587738,-1.8280892372131348,-1.6949206590652466,26.24402685546875
1765999888824881400,28.95488134765625,0.1316413581371307,-2.163148641586304,-2.2686753273010254,26.26280615234375
1765999888853050400,28.98305029296875,0.0934623107314109,-1.6620867252349854,-2.907639980316162,26.290975097656247
1765999888871829500,29.00182958984375,0.119729496538639,-1.5023455619812012,-2.8755695819854736,26.30975439453125
1765999888890609000,29.02060888671875,-0.0826194584369659,-1.768988013267517,-2.098396778106689,26.32853369140625
1765999888909388300,29.03938818359375,0.0705548822879791,-0.1427132785320282,-2.5812854766845703,26.34731298828125
1765999888937557200,29.06755712890625,0.5513054728507996,-0.2024253159761428,-2.3977205753326416,26.37548193359375
1765999888956336400,29.08633642578125,0.2799287736415863,0.000992655288428,-2.136423110961914,26.39426123046875
1765999888975115800,29.10511572265625,0.1449276655912399,-0.0077121676877141,-1.7517311573028564,26.41304052734375
1765999889003284700,29.13328466796875,0.4045451879501343,-0.2117410004138946,-0.9493602514266968,26.441209472656247
1765999889022064000,29.15206420898437,0.4060723483562469,0.0023671009112149,-0.3737728893756866,26.45998901367187
1765999889040843300,29.17084326171875,0.4344775676727295,0.4907535016536712,0.2815323173999786,26.47876806640625
1765999889059622700,29.18962255859375,0.4889972507953644,1.1770601272583008,0.8635337352752686,26.49754736328125
1765999889078402000,29.208402099609376,0.5276344418525696,1.8070143461227417,1.2880847454071045,26.516326904296875
1765999889097181200,29.22718115234375,0.5543597936630249,2.0730459690093994,1.6084833145141602,26.53510595703125
1765999889115960600,29.245960693359372,0.5676460862159729,1.988593935966492,1.867031812667847,26.55388549804687
1765999889134739700,29.26473974609375,0.5170970559120178,1.7146210670471191,2.1063380241394043,26.572664550781248
1765999889153519000,29.28351904296875,0.3845393657684326,1.4693589210510254,2.342284679412842,26.591443847656247
1765999889172298500,29.30229858398437,0.2218966335058212,1.3728421926498413,2.5654029846191406,26.61022338867187
1765999889191077600,29.32107763671875,0.0621554926037788,1.409799575805664,2.7460663318634038,26.62900244140625
1765999889209857000,29.33985693359375,-0.0704021677374839,1.5477023124694824,2.846095323562622,26.64778173828125
1765999889228636400,29.358636474609376,-0.1623373180627823,1.6520074605941772,2.8606033325195312,26.666561279296875
1765999889247415600,29.37741552734375,-0.2264781147241592,1.703320026397705,2.7883687019348145,26.68534033203125
1765999889266195000,29.39619482421875,-0.2643517255783081,1.5953497886657717,2.6599342823028564,26.70411962890625
1765999889284974300,29.41497436523437,-0.2504545450210571,1.223791241645813,2.510883331298828,26.72289916992187
1765999889303753500,29.43375341796875,-0.189673513174057,0.8261182308197021,2.3158648014068604,26.741678222656247
1765999889322532900,29.45253295898437,-0.1214093714952468,0.663780927658081,2.028147459030152,26.76045776367187
1765999889341312300,29.47131225585937,-0.12553271651268,0.3891972303390503,1.6898810863494873,26.77923706054687
1765999889360091400,29.49009130859375,-0.2440404742956161,0.0145843969658017,1.338175654411316,26.79801611328125
1765999889378870800,29.508870849609377,-0.411570131778717,-0.3525453209877014,0.984332263469696,26.816795654296875
1765999889397650200,29.527650146484376,-0.5027416944503784,-0.4563923478126526,0.6431642770767212,26.835574951171875
1765999889416429300,29.54642919921875,-0.7240274548530579,0.9264528155326844,-0.5782598853111267,26.85435400390625
1765999889435208700,29.56520874023437,-0.9622647166252136,1.6883538961410522,-1.1801143884658811,26.87313354492187
1765999889453988000,29.58398803710937,-0.6701186895370483,1.886274099349976,-1.3656646013259888,26.89191284179687
1765999889472767200,29.60276733398437,0.1550069451332092,0.6735547780990601,-1.506163477897644,26.91069213867187
1765999889500936200,29.63093627929688,0.0992655232548713,-1.1787399053573608,-1.0571779012680054,26.938861083984378
1765999889519715600,29.649715576171875,-0.1568395346403122,-1.4965423345565796,-0.8183297514915466,26.957640380859374
1765999889538495000,29.668494873046875,-0.2657261788845062,-1.097036838531494,-0.7309760451316833,26.976419677734373
1765999889557274000,29.687274169921874,-0.1908952444791793,-0.3820195496082306,-0.7677806615829468,26.995198974609373
1765999889576053500,29.706053466796877,0.0048869182355701,-0.0381026901304721,-0.8365029692649841,27.013978271484376
1765999889594833000,29.7248330078125,-0.0334448479115963,-0.0310777463018894,-0.8551343083381653,27.032757812499998
1765999889613612000,29.74361206054688,-0.1766926348209381,-0.1036179363727569,-0.8332959413528442,27.05153686523438
1765999889632391400,29.76239135742188,-0.2631300091743469,-0.1107956022024154,-0.8459713459014893,27.07031616210938
1765999889651170800,29.7811708984375,-0.2739728391170501,0.0472656637430191,-0.8566614985466003,27.089095703125
1765999889669950000,29.799949951171875,-0.2492328286170959,0.2807687222957611,-0.8281035423278809,27.107874755859374
1765999889688729300,29.818729248046875,-0.2655734717845917,0.4105774760246277,-0.7862593531608582,27.126654052734374
1765999889707508500,29.837508544921874,-0.2866483032703399,0.3300960659980774,-0.7499128580093384,27.145433349609373
1765999889735677400,29.865677490234376,-0.2444986253976822,0.2444222718477249,-0.7242565751075745,27.173602294921874
1765999889754456800,29.88445678710937,-0.2331976294517517,0.1692859083414077,-0.6729438900947571,27.19238159179687
1765999889773236200,29.903236328125,-0.2425133138895034,0.192193329334259,-0.6081922650337219,27.2111611328125
1765999889792015400,29.92201538085937,-0.2426660358905792,0.2737437784671783,-0.5246564745903015,27.22994018554687
1765999889810794800,29.94079467773437,-0.2165515571832656,0.2847393453121185,-0.4241692423820495,27.24871948242187
1765999889829574100,29.95957421875,-0.1681405305862426,0.21479532122612,-0.3194059133529663,27.267499023437498
1765999889848353300,29.978353271484377,-0.1149952933192253,0.0846811309456825,-0.2097556889057159,27.286278076171875
1765999889867132700,29.997132568359376,-0.0632245019078254,-0.033673919737339,-0.1239291951060295,27.305057373046875
1765999889895301600,30.025301513671877,-0.0597120337188243,-0.0164169911295175,-0.0266489759087562,27.333226318359376
1765999889914081000,30.0440810546875,-0.075899951159954,0.0458912178874015,-0.0043524117209017,27.352005859374998
