time,seconds_elapsed,z,y,x,t
1765999889914081000,30.0440810546875,-0.075899951159954,0.0458912178874015,-0.0043524117209017,27.352005859374998
1765999889932860200,30.06286010742188,-0.086284652352333,0.0481819584965705,0.0101556265726685,27.37078491210938
1765999889951639600,30.0816396484375,-0.0734564885497093,-0.0775034725666046,0.0142789641395211,27.389564453124997
1765999889970419000,30.1004189453125,-0.0621554926037788,-0.2401462197303772,0.017791436985135,27.40834375
1765999889989198300,30.1191982421875,-0.0569631420075893,-0.3273471593856811,0.0242055170238018,27.427123046875
1765999890007977500,30.1379775390625,-0.0774271115660667,-0.3688859641551971,0.0138208158314228,27.44590234375
1765999890026756900,30.1567568359375,-0.0791069865226745,-0.4285979866981506,0.0089338971301913,27.464681640625
1765999890045536000,30.175535888671877,-0.0459675751626491,-0.5603920817375183,0.0162642747163772,27.483460693359376
1765999890064315400,30.1943154296875,-0.0167987812310457,-0.7549524903297424,0.0362700968980789,27.502240234374998
1765999890083094800,30.2130947265625,0.0135917412117123,-0.8371137976646423,0.0710893869400024,27.521019531249998
1765999890101874000,30.2318740234375,0.0490218997001647,-0.7938951253890991,0.1124754771590232,27.539798828124997
1765999890120653300,30.2506533203125,0.1020144149661064,-0.6619483232498169,0.1932623386383056,27.558578125
1765999890139432700,30.2694326171875,0.1809686869382858,-0.5385536551475525,0.3087157905101776,27.577357421875
1765999890158211800,30.2882119140625,0.3043633699417114,-0.4340957701206207,0.4435641765594482,27.59613671875
1765999890176991200,30.3069912109375,0.4437932670116424,-0.3139081299304962,0.6007091403007507,27.614916015625
1765999890195770600,30.3257705078125,0.6218603253364563,-0.2832121849060058,0.7853430509567261,27.6336953125
1765999890214549800,30.3445498046875,0.8495602011680603,-0.4646390080451965,0.9102649092674256,27.652474609375
1765999890233329200,30.3633291015625,1.0105230808258057,-0.6992111206054688,0.9792925715446472,27.671253906249998
1765999890252108500,30.382108642578125,1.0787872076034546,-0.9128610491752625,1.0362557172775269,27.690033447265623
1765999890270887700,30.4008876953125,1.0891718864440918,-1.1204023361206057,1.0577887296676636,27.708812499999997
1765999890289667000,30.4196669921875,0.9008728265762328,-1.1118502616882324,1.038546442985535,27.727591796875
1765999890308446500,30.438446533203123,0.6873756051063538,-1.1417826414108276,1.1080323457717896,27.746371337890622
1765999890355394600,30.48539453125,0.3802633285522461,-1.0080032348632812,1.5353323221206665,27.7933193359375
1765999890383563500,30.5135634765625,-0.4021017551422119,-0.7540361881256104,1.4440079927444458,27.821488281249998
1765999890402343000,30.532343017578125,-0.8498656153678894,-0.8574250936508179,1.1685079336166382,27.840267822265623
1765999890421122300,30.551122314453124,-1.1502584218978882,-1.052290916442871,0.8158862590789795,27.859047119140623
1765999890439901400,30.5699013671875,-1.3854413032531738,-1.3432153463363647,0.4525744318962097,27.877826171875
1765999890458680800,30.588680908203123,-1.640019178390503,-1.8390847444534304,-0.0342847853899002,27.896605712890622
1765999890477460200,30.607460205078127,-1.839619278907776,-2.007072687149048,-0.752203643321991,27.915385009765625
1765999890496239400,30.6262392578125,-2.1815507411956787,-1.7720423936843872,-1.5330414772033691,27.9341640625
1765999890515018800,30.64501879882813,-2.709490776062012,-1.624976634979248,-2.214919328689575,27.952943603515628
1765999890533798100,30.663798095703125,-2.632216453552246,-1.8484004735946653,-2.984914302825928,27.971722900390624
1765999890552577300,30.682577392578125,-2.632216453552246,-1.2288308143615725,-4.016664981842041,27.990502197265624
1765999890571356700,30.701356689453124,-2.632216453552246,0.211130142211914,-4.410367488861084,28.009281494140623
1765999890599525600,30.729525634765626,-2.2145376205444336,3.2237625122070312,-3.9963536262512207,28.037450439453124
1765999890618305000,30.748304931640625,-0.8941532969474792,2.0040183067321777,-3.880136728286743,28.056229736328124
1765999890637084200,30.767084228515625,-0.0702494531869888,2.8357107639312744,-3.552255153656006,28.075009033203123
1765999890655863600,30.785863525390624,-0.5219839811325073,1.172325849533081,-3.0901358127593994,28.093788330078123
1765999890674642700,30.804642578125,0.5410735011100769,-0.6753873825073242,-2.558530807495117,28.1125673828125
1765999890693422000,30.823422119140623,1.4175117015838623,-2.156276226043701,-2.060370445251465,28.131346923828122
1765999890712201500,30.842201416015627,1.7008002996444702,-2.163148641586304,-1.6016111373901367,28.150126220703125
1765999890730980600,30.860980712890623,1.9428554773330688,-1.7053053379058838,-0.9886083006858826,28.16890551757812
1765999890749760000,30.879760009765626,1.952934741973877,-1.239673733711243,-0.3899607956409454,28.187684814453124
1765999890768539400,30.898539306640625,1.8894047737121584,-0.4145480990409851,0.1854738146066665,28.206464111328124
1765999890787318500,30.917318603515625,1.6774346828460691,0.4476875364780426,0.6584358811378479,28.225243408203124
1765999890806098000,30.936097900390624,1.4407246112823486,1.174921989440918,0.981277883052826,28.244022705078123
1765999890824877300,30.954877197265624,1.2779290676116943,1.5487712621688845,1.1726312637329102,28.262802001953123
1765999890862435800,30.992435791015627,1.1838558912277222,1.5108976364135742,1.3415354490280151,28.300360595703125
1765999890881215200,31.01121533203125,1.1407899856567385,1.1084904670715332,1.3852123022079468,28.319140136718747
1765999890899994400,31.029994384765622,1.0595449209213257,0.8531489968299866,1.392389893531799,28.33791918945312
1765999890918773800,31.048773681640625,0.948520302772522,0.7792344093322754,1.372994899749756,28.356698486328124
1765999890937553000,31.067552978515625,0.8142827749252319,0.8152754306793213,1.3167953491210938,28.375477783203124
1765999890956332300,31.086332275390625,0.6980656981468201,0.9056833982467652,1.237993836402893,28.394257080078123
1765999890975111700,31.105111572265624,0.6669116020202637,0.8841503858566284,1.1727839708328247,28.413036376953123
1765999890993890800,31.123890869140624,0.6466003656387329,0.7627410292625427,1.1391865015029907,28.431815673828122
1765999891012670200,31.142670166015623,0.5604684352874756,0.5144245028495789,1.139797329902649,28.450594970703122
1765999891031449600,31.16144970703125,0.4569268524646759,0.2213621288537979,1.181794285774231,28.469374511718748
1765999891050228700,31.180228759765622,0.3584249019622803,-0.0500145554542541,1.2492948770523071,28.48815356445312
1765999891069008100,31.199008056640626,0.2791652083396911,-0.2051742076873779,1.314504623413086,28.506932861328124
1765999891097177000,31.227177001953127,0.2031125426292419,-0.1845575273036956,1.3791035413742063,28.535101806640625
1765999891115956500,31.24595654296875,0.2110537886619568,-0.067576915025711,1.3641374111175537,28.553881347656247
1765999891134735600,31.26473559570313,0.2551887631416321,0.0258853957056999,1.3166426420211792,28.572660400390628
1765999891153515000,31.283514892578125,0.2848156988620758,-0.0136680994182825,1.2587631940841677,28.591439697265624
1765999891172294400,31.30229443359375,0.2890917658805847,-0.1136972084641456,1.1744638681411743,28.61021923828125
1765999891191073500,31.321073486328125,0.2451094985008239,-0.2598465979099273,1.0626755952835083,28.628998291015623
1765999891209853000,31.33985302734375,0.2046397030353546,-0.3774380683898926,0.9389755129814148,28.64777783203125
1765999891228632000,31.358632080078124,0.1540906429290771,-0.4177551567554474,0.7934370040893555,28.666556884765622
1765999891247411500,31.377411376953123,0.0711657479405403,-0.4428006112575531,0.6237692832946777,28.685336181640622
1765999891266190800,31.39619091796875,-0.0401643589138984,-0.4496728479862213,0.4434114694595337,28.704115722656248
1765999891294359800,31.42435986328125,-0.1385135948657989,-0.3586539924144745,0.1984546929597854,28.73228466796875
1765999891313139000,31.443138916015624,-0.1653916388750076,-0.147905632853508,-0.0170278549194335,28.751063720703122
1765999891331918300,31.46191845703125,-0.3168860971927643,0.1920406222343444,-0.4956403970718384,28.769843261718748
1765999891350697700,31.48069775390625,-0.5358811020851135,0.2210566848516464,-1.021289587020874,28.788622558593747
1765999891369476900,31.499476806640622,-0.729983389377594,-0.0497091226279735,-1.247156858444214,28.80740161132812
1765999891388256300,31.51825634765625,-0.5300779342651367,-0.3061196208000183,-1.0822232961654663,28.82618115234375
1765999891407035600,31.53703564453125,-0.1968511790037155,-0.4069122970104217,-0.9475276470184326,28.84496044921875
1765999891425814800,31.555814697265625,-0.1386663019657135,-0.5000692009925842,-0.9763910174369812,28.863739501953123
1765999891444594200,31.57459423828125,-0.3370446562767029,-0.4615846872329712,-0.9105703234672546,28.88251904296875
1765999891463373600,31.59337353515625,-0.2414443045854568,-0.3146717250347137,-0.7757219076156616,28.90129833984375
1765999891491542500,31.62154248046875,0.0355828739702701,-0.215253472328186,-0.5632936954498291,28.92946728515625
1765999891510321700,31.64032177734375,0.0004581485991366,-0.5251146554946899,-0.4194350242614746,28.94824658203125
1765999891529101000,31.65910107421875,-0.0817031636834144,-0.6329322457313538,-0.3007745444774627,28.96702587890625
1765999891547880400,31.67788037109375,-0.0963639169931411,-0.4632645845413208,-0.2044106274843216,28.98580517578125
1765999891566659600,31.69665966796875,-0.0998763889074325,-0.1749363988637924,-0.1410334110260009,29.004584472656248
1765999891585439000,31.71543896484375,-0.1498145908117294,0.1075885593891143,-0.0939968153834343,29.023363769531247
1765999891604218400,31.73421826171875,-0.1634063273668289,0.241062507033348,-0.0600938238203525,29.042143066406247
1765999891622997500,31.75299755859375,-0.1281288862228393,0.2283870726823806,-0.0304668806493282,29.06092236328125
1765999891641777000,31.77177685546875,-0.0810922980308532,0.2297615110874176,0.0031306820455938,29.07970166015625
1765999891660556300,31.790556396484376,-0.0500909127295017,0.2742019295692444,0.0504727028310298,29.098481201171875
1765999891679335400,31.80933544921875,-0.0343611426651477,0.3612501621246338,0.0993418842554092,29.11726025390625
1765999891698114800,31.82811474609375,-0.0238237269222736,0.4450913369655609,0.1414915472269058,29.13603955078125
1765999891716894200,31.84689428710937,0.0013744457392022,0.4585303664207458,0.1807396113872528,29.15481909179687
1765999891735673300,31.86567333984375,0.0310013871639966,0.4128682315349579,0.2196822464466095,29.173598144531248
1765999891754452700,31.88445263671875,0.0455094277858734,0.3221548199653625,0.2351065874099731,29.192377441406247
1765999891773232000,31.90323217773437,0.0313068181276321,0.2380081862211227,0.2260963320732116,29.21115698242187
1765999891792011300,31.92201123046875,0.0154243353754282,0.2192240953445434,0.1969275325536728,29.22993603515625
1765999891810790700,31.940790771484377,0.0167987812310457,0.2283870726823806,0.1547778695821762,29.248715576171875
1765999891829570000,31.959570068359376,0.0313068181276321,0.2462548613548278,0.1278998106718063,29.267494873046875
1765999891848349200,31.97834912109375,0.0445931293070316,0.2456440031528473,0.1184314116835594,29.28627392578125
1765999891867128600,31.997128662109372,0.0621554926037788,0.2143371850252151,0.1103374511003494,29.30505346679687
1765999891895297500,32.02529760742188,0.0842993408441543,0.1689804643392563,0.0900261998176574,29.333222412109375
1765999891914077000,32.04407690429687,0.1114828214049339,0.1851683855056762,0.0900261998176574,29.35200170898437
1765999891932856000,32.06285595703125,0.1311832070350647,0.1802814751863479,0.0694095119833946,29.370780761718752
1765999891951635500,32.08163549804687,0.106595903635025,0.1472947746515274,0.0064904382452368,29.38956030273437
1765999891970414800,32.100414794921875,0.0817031636834144,0.0797942131757736,-0.0381026901304721,29.408339599609373
1765999891989194000,32.11919409179688,0.1049160286784172,-0.0005345066892914,-0.0439059063792228,29.427118896484377
1765999892007973400,32.137973388671874,0.1223256736993789,-0.0342847853899002,-0.042989607900381,29.445898193359376
