time,seconds_elapsed,z,y,x,t
1765999877820213200,17.950213134765626,2.523176908493042,-3.8595199584960938,-4.5855326652526855,15.258137939453126
1765999877838992400,17.968992431640626,2.7925684452056885,-4.613785266876221,-3.620671987533569,15.276917236328126
1765999877857771800,17.987771728515625,2.4181082248687744,-4.820562839508057,-3.2935538291931152,15.295696533203126
1765999877876551200,18.00655126953125,2.3061673641204834,-4.632416725158691,-2.510883331298828,15.314476074218751
1765999877895330300,18.025330322265624,2.386037826538086,-3.4288604259490967,-1.821675181388855,15.333255126953125
1765999877914109700,18.044109619140624,1.656970739364624,-1.4018583297729492,-0.9974658489227296,15.352034423828124
1765999877932888800,18.062888916015623,0.7170025110244751,0.5955168008804321,-0.3308596312999725,15.370813720703124
1765999877951668200,18.081668212890627,0.2018908113241195,1.5976405143737793,0.344909518957138,15.389593017578127
1765999877970447600,18.100447509765623,-0.2159406989812851,1.4826451539993286,0.945847749710083,15.408372314453123
1765999877989226800,18.119226806640626,-0.6209440231323242,1.031521558761597,1.5426626205444336,15.427151611328126
1765999878008006100,18.138006103515625,-0.9309579133987428,0.6790525317192078,2.0680062770843506,15.445930908203126
1765999878026785300,18.156785400390625,-1.281441569328308,0.7250201106071472,2.4027602672576904,15.464710205078125
1765999878045564700,18.175564697265624,-1.634826898574829,1.0041853189468384,2.633208990097046,15.483489501953125
1765999878064343800,18.19434375,-1.9485058784484863,1.3294708728790283,2.788674116134644,15.502268554687502
1765999878083123200,18.213123291015624,-2.221409797668457,1.5730531215667725,2.8467061519622803,15.521048095703124
1765999878101902300,18.23190234375,-2.383594274520874,1.6871321201324463,2.7854671478271484,15.539827148437501
1765999878120681700,18.250681640625,-2.477056741714477,1.755090832710266,2.618395566940308,15.5586064453125
1765999878139461000,18.269461181640622,-2.4287984371185303,1.627725601196289,2.3690099716186523,15.577385986328123
1765999878158240300,18.288240234375,-2.274402379989624,1.4495058059692385,2.041739225387573,15.5961650390625
1765999878177019600,18.30701953125,-2.222631454467773,1.3406190872192385,1.7381393909454346,15.6149443359375
1765999878195798800,18.325798828125,-2.1804819107055664,1.3502402305603027,1.3882665634155271,15.633723632812499
1765999878214578200,18.344578125,-2.0526583194732666,1.5105922222137451,0.984332263469696,15.652502929687502
1765999878233357600,18.363357666015624,-1.6768238544464111,2.6713881492614746,0.4397462904453277,15.671282470703124
1765999878252136700,18.38213671875,-0.8765909671783447,3.78468918800354,-0.3598757088184356,15.690061523437501
1765999878270916000,18.400916015625,0.171653002500534,2.881678342819214,-0.8120683431625366,15.708840820312501
1765999878289695500,18.419695556640622,0.282372236251831,1.6921718120574951,-1.6814817190170288,15.727620361328123
1765999878308474600,18.438474609375,0.4896081089973449,-1.2066869735717771,-1.650174856185913,15.7463994140625
1765999878327254000,18.45725390625,0.3430005609989166,-2.2517240047454834,-0.8820123672485352,15.7651787109375
1765999878346033200,18.476033203125,-0.1695149689912796,-1.2328014373779297,-0.4200458824634552,15.7839580078125
1765999878364812500,18.4948125,-0.2455676347017288,0.2543488144874573,-0.4889208972454071,15.802737304687499
1765999878383592000,18.513592041015624,0.0876590982079505,0.7121919989585876,-0.5767326951026917,15.821516845703124
1765999878402371000,18.53237109375,0.2484692484140396,0.5115228891372681,-0.5709294676780701,15.840295898437502
1765999878421150500,18.551150390625,0.108886644244194,-0.0110719241201877,-0.5220603346824646,15.859075195312501
1765999878439929600,18.5699296875,-0.0302378069609403,-0.2871828079223633,-0.4550178945064544,15.8778544921875
1765999878458709000,18.588708984375,-0.0667369738221168,0.0300087314099073,-0.395305871963501,15.8966337890625
1765999878477488400,18.60748828125,-0.0222965646535158,0.4698313772678375,-0.298789232969284,15.9154130859375
1765999878496267500,18.626267578125,-0.0390953458845615,0.6831759214401245,-0.1700494885444641,15.9341923828125
1765999878515047000,18.645046875,-0.0931568816304206,0.6486620306968689,-0.0712421014904975,15.952971679687499
1765999878533826000,18.663825927734376,-0.134695678949356,0.4818959534168243,-0.0185550171881914,15.971750732421876
1765999878552605400,18.68260546875,-0.173943743109703,0.4107302129268646,-0.0196240302175283,15.990530273437502
1765999878571384600,18.70138452148437,-0.2403752952814102,0.4710530936717987,-0.0516944304108619,16.00930932617187
1765999878590164000,18.7201640625,-0.3051269650459289,0.5246564745903015,-0.1081994250416755,16.0280888671875
1765999878608943400,18.738943359375,-0.3326158821582794,0.5101484656333923,-0.1816559135913849,16.0468681640625
1765999878627722500,18.757722412109374,-0.3202458620071411,0.3701077103614807,-0.2490037530660629,16.065647216796872
1765999878646502000,18.776501953125,-0.3300196826457977,0.1625663936138153,-0.2758817970752716,16.084426757812498
1765999878665281000,18.795281005859376,-0.3249800503253937,-0.0600938238203525,-0.2874882221221924,16.103205810546875
1765999878684060400,18.814060302734376,-0.3295615613460541,-0.1109483167529106,-0.2537379562854767,16.121985107421875
1765999878702839800,18.83283984375,-0.3691150546073913,-0.0665079057216644,-0.2219729870557785,16.1407646484375
1765999878721619000,18.85161889648437,-0.3923279047012329,-0.0403934344649314,-0.1911243200302124,16.15954370117187
1765999878740398300,18.8703984375,-0.4202749729156494,0.0020616685505956,-0.1755472719669342,16.1783232421875
1765999878759177500,18.88917749023437,-0.4529562294483185,-0.021609341725707,-0.1749363988637924,16.19710229492187
1765999878777956900,18.907956787109374,-0.4709767401218414,-0.0886517539620399,-0.1758527010679245,16.215881591796872
1765999878796736300,18.926736328125,-0.4856374859809875,-0.1518762558698654,-0.1680641770362854,16.234661132812498
1765999878815515400,18.945515380859376,-0.4717403352260589,-0.2094502598047256,-0.1440877318382263,16.253440185546875
1765999878834294800,18.964294677734376,-0.4066832363605499,-0.1676060259342193,-0.0811686590313911,16.272219482421875
1765999878853074000,18.983073974609376,-0.337808221578598,-0.0513890013098716,0.0442113392055034,16.290998779296874
1765999878871853300,19.00185327148437,-0.2700022459030151,-0.1309541314840316,0.2331212759017944,16.30977807617187
1765999878890632700,19.0206328125,-0.1536324918270111,-0.2664133906364441,0.4748710095882416,16.3285576171875
1765999878909411800,19.03941186523437,0.0957530513405799,-0.5764272809028625,0.742429792881012,16.34733666992187
1765999878928191200,19.05819116210937,0.4034761786460876,-0.745942234992981,0.9939533472061156,16.36611596679687
1765999878946970400,19.076970458984373,0.6519454121589661,-0.7969494462013245,1.222264051437378,16.384895263671872
1765999878965749800,19.095749755859377,0.8791871070861816,-0.8059597015380859,1.3681080341339111,16.403674560546875
1765999878984529000,19.11452880859375,1.007010579109192,-0.8952987194061279,1.4007892608642578,16.42245361328125
1765999879003308300,19.133308349609376,0.9418007731437684,-0.9485966563224792,1.3629156351089478,16.441233154296874
1765999879022087700,19.15208764648437,0.7553343176841736,-1.031368851661682,1.321376919746399,16.46001245117187
1765999879040866800,19.17086669921875,0.5490147471427917,-0.9340885877609252,1.2555562257766724,16.478791503906248
1765999879059646200,19.18964624023437,0.3769035637378692,-0.7051670551300049,1.148654818534851,16.49757104492187
1765999879078425300,19.20842529296875,0.2031125426292419,-0.5251146554946899,1.0457241535186768,16.51635009765625
1765999879097204700,19.227204833984374,0.0748309344053268,-0.4493674039840698,0.7115811109542847,16.535129638671872
1765999879115984100,19.245984130859377,-0.083535760641098,-0.4455494880676269,0.1979965418577194,16.553908935546875
1765999879134763300,19.26476318359375,-0.3087921440601349,-0.7079159021377563,-0.4240165054798126,16.57268798828125
1765999879153542700,19.283542724609376,-0.5761982202529907,-1.2746456861495972,-1.113530158996582,16.591467529296875
1765999879172322000,19.302322021484372,-0.8605557680130005,-2.071824312210083,-1.7760130167007446,16.61024682617187
1765999879191101200,19.32110107421875,-1.098182201385498,-2.6742897033691406,-2.3506839275360107,16.629025878906248
1765999879209880600,19.33988061523437,-1.2179116010665894,-2.863046884536743,-2.865795850753784,16.64780541992187
1765999879228659700,19.35865966796875,-1.2270746231079102,-2.4340670108795166,-3.359832763671875,16.66658447265625
1765999879247439000,19.377439208984374,-1.2537999153137207,-1.5562543869018557,-3.786674499511719,16.685364013671872
1765999879266218200,19.39621826171875,-1.3921607732772827,-0.4847975671291351,-4.159149169921875,16.70414306640625
1765999879284997600,19.41499755859375,-1.5386157035827637,-0.104076087474823,-3.508120059967041,16.72292236328125
1765999879303777000,19.433777099609376,-0.9563088417053224,-2.382143497467041,-3.2715625762939453,16.741701904296875
1765999879322556200,19.45255615234375,-0.5166388750076294,-2.1988842487335205,-3.058065414428711,16.76048095703125
1765999879341335600,19.47133544921875,-0.3095557391643524,-0.8039743900299072,-3.4925429821014404,16.779260253906248
1765999879360114700,19.49011474609375,0.0933095961809158,0.9611193537712096,-2.6706244945526123,16.798039550781247
1765999879378894000,19.50889404296875,-0.1469129770994186,3.6831328868865967,-1.907348871231079,16.816818847656247
1765999879397673200,19.527673095703125,-0.3410152494907379,5.410505771636963,-1.4169771671295166,16.835597900390624
1765999879416452600,19.54645263671875,-0.0595593154430389,4.71793794631958,-0.940808117389679,16.85437744140625
1765999879435232000,19.56523193359375,0.4925097227096557,2.97452974319458,-0.5432878732681274,16.87315673828125
1765999879454011100,19.58401123046875,1.3910918235778809,0.8568142056465149,-0.0582612268626689,16.89193603515625
1765999879482180000,19.61218017578125,1.995695233345032,-1.3251948356628418,0.8044325709342957,16.92010498046875
1765999879500959500,19.63095947265625,2.036317825317383,-1.219362497329712,1.3435207605361938,16.93888427734375
1765999879519739000,19.64973876953125,1.9775220155715945,-0.5037343502044678,1.7182862758636477,16.95766357421875
1765999879538518000,19.66851806640625,1.954767346382141,0.3220020830631256,2.0655629634857178,16.97644287109375
1765999879557297400,19.68729736328125,1.9619449377059937,0.9386700987815856,2.3728277683258057,16.99522216796875
1765999879576076500,19.70607666015625,1.9225441217422483,1.2625811100006104,2.5982370376586914,17.014001464843748
1765999879594856000,19.72485595703125,1.8209879398345947,1.2329541444778442,2.7468297481536865,17.032780761718747
1765999879613635000,19.743635009765622,1.6985095739364624,1.0296889543533323,2.8364741802215576,17.05155981445312
1765999879632414500,19.76241455078125,1.554650902748108,0.8042798638343811,2.8719043731689453,17.07033935546875
1765999879651193900,19.78119384765625,1.3921607732772827,0.646065890789032,2.8465535640716557,17.08911865234375
1765999879669973000,19.799972900390625,1.234710454940796,0.5202277302742004,2.7686681747436523,17.107897705078123
1765999879688752400,19.81875244140625,1.0800089836120603,0.385990172624588,2.65871262550354,17.12667724609375
1765999879707531500,19.837531494140624,0.918893337249756,0.2767980992794037,2.519435405731201,17.145456298828122
1765999879726311000,19.856310791015623,0.7406735420227051,0.1187368407845497,2.340757369995117,17.164235595703122
1765999879745090300,19.87509033203125,0.5949822664260864,0.0300087314099073,2.091066598892212,17.183015136718748
1765999879773259000,19.903259033203124,0.3714057803153991,-0.2980256676673889,1.6451351642608645,17.211183837890623
1765999879792038400,19.922038330078124,0.277332603931427,-0.5550470352172852,1.311908483505249,17.229963134765622
1765999879810817800,19.94081787109375,0.2170097082853317,-0.8329904675483704,0.9456950426101683,17.248742675781248
1765999879829597000,19.959596923828126,0.1113301068544387,-1.1523200273513794,0.5512291193008423,17.267521728515625
