time,seconds_elapsed,z,y,x,t
1765999878796736300,18.926736328125,0.0437757968902587,-0.2400684356689453,0.1289792656898498,16.253440673828123
1765999878815515400,18.945515380859376,0.4673099517822265,-0.0942592620849609,0.0684196949005127,16.2722197265625
1765999878834294800,18.964294677734376,1.0219669342041016,0.2215633392333984,-0.2087157964706421,16.2909990234375
1765999878853074000,18.983073974609376,2.102693796157837,0.1401920318603515,-0.9377392530441284,16.3097783203125
1765999878871853300,19.00185327148437,3.9121270179748535,-0.4682416915893554,-2.235702514648437,16.328557617187496
1765999878890632700,19.0206328125,5.133030414581299,-0.4489698410034179,-3.957756519317627,16.347337158203125
1765999878909411800,19.03941186523437,5.387283802032471,0.5687408447265625,-5.456630229949951,16.366116210937495
1765999878928191200,19.05819116210937,4.909854888916016,1.2062311172485352,-6.619163513183594,16.384895507812494
1765999878946970400,19.076970458984373,4.258121490478516,1.006730079650879,-6.313266754150391,16.403674804687498
1765999878965749800,19.095749755859377,2.836724042892456,1.307058334350586,-5.668261528015137,16.4224541015625
1765999878984529000,19.11452880859375,0.6558313369750977,2.1346588134765625,-4.700270652770996,16.441233154296874
1765999879003308300,19.133308349609376,-1.082289218902588,2.482772827148437,-2.80369234085083,16.4600126953125
1765999879022087700,19.15208764648437,-1.440305233001709,1.8203744888305664,-0.560056209564209,16.478791992187496
1765999879040866800,19.17086669921875,-1.0968868732452393,0.838139533996582,1.233635663986206,16.497571044921873
1765999879059646200,19.18964624023437,-0.4466104507446289,0.0478134155273437,2.4441399574279785,16.516350585937495
1765999879078425300,19.20842529296875,0.540562629699707,-0.8779897689819336,3.5332226753234863,16.535129638671876
1765999879097204700,19.227204833984374,0.2691121101379394,-1.1284265518188477,3.920302867889404,16.553909179687498
1765999879115984100,19.245984130859377,-0.0276312828063964,-1.1452388763427734,3.129089593887329,16.5726884765625
1765999879134763300,19.26476318359375,0.3634798526763916,-1.1762347221374512,1.6210042238235474,16.591467529296875
1765999879153542700,19.283542724609376,0.8500332832336426,-1.067304611206055,0.4138363599777221,16.6102470703125
1765999879172322000,19.302322021484372,0.7106804847717285,-0.5630226135253906,0.5330328345298767,16.629026367187496
1765999879191101200,19.32110107421875,0.3787362575531006,0.658757209777832,1.1073246002197266,16.647805419921873
1765999879209880600,19.33988061523437,-0.1812465190887451,1.734400749206543,1.880391240119934,16.666584960937495
1765999879228659700,19.35865966796875,-1.3926353454589844,2.3292808532714844,3.23078727722168,16.685364013671876
1765999879247439000,19.377439208984374,-2.724272489547729,2.1500120162963867,5.2893385887146,16.704143554687498
1765999879266218200,19.39621826171875,-4.088006019592285,1.5990581512451172,6.843858242034912,16.722922607421875
1765999879284997600,19.41499755859375,-2.0250439643859863,1.3242511749267578,6.707736968994141,16.741701904296875
1765999879303777000,19.433777099609376,-8.169116973876953,-0.919325828552246,0.8814213275909424,16.7604814453125
1765999879322556200,19.45255615234375,-3.796896934509277,4.147005081176758,-9.602178573608398,16.779260498046874
1765999879341335600,19.47133544921875,-3.461110115051269,4.939377784729004,-5.009057521820068,16.798039794921873
1765999879360114700,19.49011474609375,2.8835370540618896,-1.5792298316955566,7.245367050170898,16.816819091796873
1765999879378894000,19.50889404296875,2.5730583667755127,-2.3933606147766118,13.379916191101074,16.835598388671873
1765999879397673200,19.527673095703125,-3.3940751552581787,-0.0761470794677734,9.219400405883787,16.85437744140625
1765999879416452600,19.54645263671875,-0.9273617267608644,0.3295936584472656,0.0762326717376709,16.873156982421875
1765999879435232000,19.56523193359375,0.5079023838043213,0.244420051574707,-8.951388359069824,16.891936279296875
1765999879454011100,19.58401123046875,0.9417450428009032,-0.9433679580688475,-13.675179481506348,16.910715576171874
1765999879482180000,19.61218017578125,-0.9665480852127076,-2.9633960723876958,-3.552557945251465,16.938884521484376
1765999879500959500,19.63095947265625,-3.210486888885498,-2.659539222717285,-0.5606508255004883,16.957663818359375
1765999879519739000,19.64973876953125,-5.061573505401611,-1.942148208618164,1.5130538940429688,16.976443115234375
1765999879538518000,19.66851806640625,-4.625993251800537,-1.8561553955078125,2.630415439605713,16.995222412109374
1765999879557297400,19.68729736328125,-4.040406703948975,-2.4729623794555664,2.12575101852417,17.014001708984374
1765999879576076500,19.70607666015625,-3.8326148986816406,-2.737419605255127,0.543315052986145,17.032781005859373
1765999879594856000,19.72485595703125,-4.138716220855713,-2.821669578552246,-0.6692854166030884,17.051560302734373
1765999879613635000,19.743635009765622,-4.129194736480713,-2.8802318572998047,-1.3064645528793335,17.070339355468747
1765999879632414500,19.76241455078125,-3.914693117141724,-3.0038604736328125,-1.2211673259735107,17.089118896484376
1765999879651193900,19.78119384765625,-3.771663188934326,-2.974513053894043,-0.7219303846359253,17.107898193359375
1765999879669973000,19.799972900390625,-3.7119317054748535,-2.866119384765625,-0.5265557169914246,17.12667724609375
1765999879688752400,19.81875244140625,-3.344421625137329,-2.6674933433532715,-0.7115098237991333,17.145456787109374
1765999879707531500,19.837531494140624,-2.895909786224365,-2.206360340118408,-1.0628443956375122,17.164235839843748
1765999879726311000,19.856310791015623,-2.671809196472168,-1.7014870643615725,-1.169527530670166,17.183015136718748
1765999879745090300,19.87509033203125,-2.608585357666016,-1.336308479309082,-1.5334327220916748,17.201794677734373
1765999879773259000,19.903259033203124,-2.2879433631896973,-0.7304849624633789,-1.09121572971344,17.22996337890625
1765999879792038400,19.922038330078124,-2.1795778274536133,0.1089725494384765,-0.8988059163093567,17.248742675781248
1765999879810817800,19.94081787109375,-1.90766716003418,0.7574243545532227,-0.6260531544685364,17.267522216796873
1765999879829597000,19.959596923828126,-1.559746265411377,0.8496894836425781,0.0607571005821228,17.28630126953125
1765999879848376300,19.97837622070313,-1.2228097915649414,0.7920265197753906,0.7135916352272034,17.305080566406254
1765999879867155500,19.997155517578125,-0.2334671020507812,0.7580490112304688,1.357527732849121,17.32385986328125
1765999879885934800,20.015934814453125,0.3783130645751953,0.7366666793823242,1.8661853075027464,17.34263916015625
1765999879904714200,20.03471435546875,0.7965130805969238,0.6504154205322266,2.2415096759796143,17.361418701171875
1765999879923493400,20.053493408203124,-1.040750503540039,2.071630477905273,2.3126637935638428,17.38019775390625
1765999879942272800,20.072272705078124,1.0445261001586914,5.14492130279541,3.069338321685791,17.398977050781248
1765999879961052200,20.09105224609375,4.484859466552734,6.360583305358887,4.169472694396973,17.417756591796874
1765999879979831300,20.109831298828126,6.566133499145508,6.252073287963867,2.2962467670440674,17.43653564453125
1765999879998610700,20.12861059570313,7.738447189331055,3.626533508300781,-0.8464550971984863,17.455314941406254
1765999880017389800,20.14738989257813,4.957443714141846,2.078033447265625,-3.534984827041626,17.474094238281253
1765999880036169200,20.166169189453125,2.2848596572875977,1.505478858947754,-3.699240684509277,17.49287353515625
1765999880054948600,20.184948486328125,1.0714337825775146,1.5520858764648438,-1.8826453685760496,17.51165283203125
1765999880073727700,20.203727783203124,0.6252613067626953,0.906264305114746,-0.9778923988342284,17.53043212890625
1765999880092507100,20.222507080078124,0.7486793994903564,-0.0844249725341796,-1.3362226486206057,17.549211425781248
1765999880120676000,20.250676025390625,0.3367125988006592,-1.0097312927246094,-1.2191171646118164,17.57738037109375
1765999880139455200,20.269455322265625,0.0776126384735107,-1.100358963012695,-0.1227026060223579,17.59615966796875
1765999880158234600,20.288234619140624,-0.1119735240936279,-0.7175407409667969,1.0945043563842771,17.61493896484375
1765999880177014000,20.307013916015624,-0.2931022644042969,-0.4116268157958984,1.8568663597106931,17.633718261718748
1765999880195793200,20.325793212890623,-0.2654283046722412,-0.3321399688720703,1.7530813217163086,17.652497558593748
1765999880214572500,20.344572509765623,-0.302889347076416,-0.1899023056030273,1.1561318635940552,17.671276855468747
1765999880233351700,20.3633515625,-0.0840604305267334,0.0525169372558593,0.514879584312439,17.690055908203124
1765999880252131000,20.382131103515626,0.0035057067871093,0.2004203796386718,0.3108286559581756,17.70883544921875
1765999880270910500,20.400910400390625,-0.0415923595428466,0.0992050170898437,0.4018059074878692,17.72761474609375
1765999880289689600,20.419689697265625,-0.5059216022491455,0.1011247634887695,0.5279181599617004,17.74639404296875
1765999880308469000,20.438468994140624,-0.6265482902526855,0.1708269119262695,0.0052780732512474,17.76517333984375
1765999880327248100,20.457248046875,-0.6972548961639404,0.2315301895141601,-0.3838156163692474,17.783952392578126
1765999880346027500,20.476027587890623,-0.5245440006256104,0.3166646957397461,-0.7994533777236938,17.802731933593748
1765999880364807000,20.494806884765627,0.3529512882232666,0.3813390731811523,-0.926782250404358,17.82151123046875
1765999880383586000,20.5135859375,1.2198344469070437,0.0574188232421875,-0.907006859779358,17.840290283203124
1765999880411755000,20.541755126953124,2.030749797821045,-0.0722799301147461,-1.1475367546081543,17.868459472656248
1765999880430534400,20.560534423828123,2.3077120780944824,0.0988569259643554,-0.845080554485321,17.887238769531248
1765999880449313500,20.5793134765625,2.4318416118621826,0.1351566314697265,-0.894570529460907,17.906017822265625
1765999880468093000,20.59809301757813,2.276963472366333,0.3087062835693359,-1.4687528610229492,17.924797363281254
1765999880486872300,20.61687231445313,2.166118860244751,0.56439208984375,-2.3964977264404297,17.943576660156253
1765999880505651500,20.6356513671875,1.846522569656372,0.9252090454101562,-3.0602049827575684,17.962355712890623
1765999880524430800,20.654430908203125,2.1843719482421875,1.716292381286621,-3.6504950523376474,17.98113525390625
1765999880543210200,20.673210205078124,2.070909023284912,2.467196464538574,-4.984540939331055,17.99991455078125
1765999880561989400,20.6919892578125,1.7934366464614868,2.1176462173461914,-6.433076858520508,18.018693603515626
1765999880580768800,20.710768798828123,1.2744033336639404,2.5250110626220703,-7.819325447082519,18.037473144531248
1765999880599548000,20.7295478515625,-0.6455948352813721,2.7599077224731445,-7.962376594543457,18.056252197265625
1765999880618327300,20.74832739257813,-2.11716628074646,2.39509391784668,-5.354719161987305,18.075031738281254
1765999880637106700,20.76710668945313,-2.7854526042938232,0.1499280929565429,-0.537346363067627,18.093811035156254
1765999880655885800,20.7858857421875,-2.8249852657318115,-2.280886173248291,4.1429829597473145,18.112590087890624
1765999880674665200,20.804665283203125,-1.7039783000946045,-3.261617660522461,6.266548156738281,18.13136962890625
1765999880693444600,20.823444580078124,0.3142232894897461,-3.0777816772460938,6.264318466186523,18.15014892578125
1765999880712223700,20.8422236328125,1.28204607963562,-2.4478344917297363,5.204103469848633,18.168927978515626
1765999880731003100,20.861003173828124,0.8039350509643555,-2.2171640396118164,3.396367073059082,18.187707519531248
1765999880749782300,20.8797822265625,0.2337870597839355,-1.926046371459961,1.888257384300232,18.206486572265625
1765999880768561700,20.898561767578126,0.690943717956543,-1.6910161972045898,1.7413886785507202,18.22526611328125
1765999880787341000,20.91734106445313,0.4972827434539795,-2.409269332885742,1.9064009189605715,18.244045410156254
1765999880806120200,20.9361201171875,1.045783758163452,-2.3414597511291504,2.3178811073303223,18.262824462890624
1765999880824899600,20.954899658203125,0.0285344123840332,-0.5194015502929688,4.417083740234375,18.28160400390625
