time,seconds_elapsed,z,y,x,t
1765999882853063400,22.9830634765625,-0.5068650245666504,-0.229150652885437,0.1976911127567291,20.290988281249998
1765999882871842600,23.00184252929688,-0.6858484148979187,-0.2935968935489654,-0.1138499230146408,20.30976733398438
1765999882890622000,23.0206220703125,-0.879339873790741,-0.1495855152606964,-0.7554106712341309,20.328546874999997
1765999882909401000,23.03940112304688,-0.8116865754127502,-0.1756999790668487,-1.5388447046279907,20.347325927734378
1765999882928180500,23.058180419921875,-0.2431241869926452,0.1286633908748626,-1.5542690753936768,20.366105224609374
1765999882946960000,23.0769599609375,0.3727802336215973,-0.1954003721475601,-1.4731767177581787,20.384884765625
1765999882975128800,23.10512890625,-0.1456912457942962,-0.9426407217979432,-0.9046143889427184,20.413053710937497
1765999882993908000,23.123907958984372,-0.5057960152626038,-0.7745001912117004,-0.5492438077926636,20.43183276367187
1765999883012687400,23.14268725585937,-0.5198459029197693,0.0069485870189964,-0.4420370161533355,20.45061206054687
1765999883031466800,23.161466796875,-0.2544251680374145,0.4844921231269836,-0.4293615818023681,20.4693916015625
1765999883050246000,23.18024584960937,-0.1186604797840118,0.3867537677288055,-0.3830885887145996,20.48817065429687
1765999883069025300,23.199025390625,-0.0975856482982635,0.0516944304108619,-0.3578903973102569,20.5069501953125
1765999883087804400,23.217804443359373,-0.1279761642217636,-0.2205985486507415,-0.3333030939102173,20.525729248046872
1765999883106583800,23.236583740234376,-0.1601992845535278,-0.2958876192569732,-0.3023017048835754,20.544508544921875
1765999883125363200,23.25536328125,-0.1829539984464645,-0.1272889524698257,-0.2642753720283508,20.563288085937497
1765999883144142300,23.274142333984376,-0.2251036763191223,0.1559995859861374,-0.2236528694629669,20.582067138671874
1765999883162921700,23.29292163085937,-0.2370155304670334,0.362930029630661,-0.1787542998790741,20.60084643554687
1765999883181701000,23.311701171875,-0.2402225732803344,0.4347066581249237,-0.1324812918901443,20.6196259765625
1765999883200480300,23.33048022460937,-0.2414443045854568,0.4030944108963012,-0.0932332351803779,20.63840502929687
1765999883219259600,23.349259765625,-0.2275471240282058,0.3007745444774627,-0.0556650534272193,20.6571845703125
1765999883238039000,23.3680390625,-0.1960875988006591,0.2004400044679641,-0.0171805713325738,20.675963867187498
1765999883256818200,23.386818115234377,-0.1635590493679046,0.1599702090024948,0.011224640533328,20.694742919921875
1765999883275597600,23.40559765625,-0.1441640853881836,0.1637881249189376,0.0293978676199913,20.713522460937497
1765999883294376700,23.424376708984376,-0.1096502244472503,0.2771035432815552,0.0474183782935142,20.732301513671874
1765999883313156000,23.44315600585937,-0.0755945146083831,0.2477820217609405,0.1315650045871734,20.75108081054687
1765999883331935500,23.461935546875,-0.047036588191986,0.1717293560504913,0.2322049736976623,20.7698603515625
1765999883350714600,23.48071459960937,0.0543669648468494,0.0701730921864509,0.3682751059532165,20.78863940429687
1765999883369494000,23.49949389648437,0.1962403059005737,-0.1249982044100761,0.5182424187660217,20.80741870117187
1765999883388273400,23.5182734375,0.3707949221134186,-0.2022725939750671,0.6662244200706482,20.8261982421875
1765999883407052500,23.537052490234377,0.4764745235443115,-0.2309832423925399,0.8230639100074768,20.844977294921875
1765999883425832000,23.55583203125,0.5722275972366333,-0.2002872824668884,0.9403499960899352,20.863756835937497
1765999883444611000,23.574611083984376,0.6798924803733826,-0.1877645552158355,0.9832631945610046,20.882535888671875
1765999883463390500,23.593390380859372,0.7987056970596313,-0.2612210512161255,0.9791398644447328,20.90131518554687
1765999883482169900,23.612169921875,0.9245438575744628,-0.4922806620597839,0.9288962483406068,20.9200947265625
1765999883500949000,23.63094897460937,1.0540472269058228,-0.8106939196586609,0.8102357983589172,20.93887377929687
1765999883519728400,23.64972827148437,1.152243733406067,-1.0866520404815674,0.585437536239624,20.95765307617187
1765999883538507800,23.6685078125,1.2269219160079956,-1.2482258081436155,0.2914588451385498,20.9764326171875
1765999883557287000,23.687286865234373,1.2973240613937378,-1.3818525075912476,-0.0518471486866474,20.995211669921872
1765999883576066300,23.70606640625,1.3373357057571411,-1.4003311395645142,-0.5619192123413086,21.013991210937498
1765999883594845700,23.724845703125,1.207221508026123,-1.34000825881958,-1.2705223560333252,21.032770507812497
1765999883613624800,23.743624755859376,1.1163554191589355,-1.102229118347168,-2.008752584457397,21.051549560546874
1765999883632404200,23.762404296875,1.1739293336868286,-0.7011964321136475,-2.676733016967773,21.0703291015625
1765999883651183600,23.78118359375,1.203098177909851,-0.5145772099494934,-3.228649377822876,21.0891083984375
1765999883669962800,23.79996264648437,1.1606431007385254,-0.5999455451965332,-3.666028499603272,21.10788745117187
1765999883688742100,23.8187421875,1.0879502296447754,-1.2227221727371216,-3.7804131507873535,21.1266669921875
1765999883707521500,23.837521484375,0.759304940700531,-3.7278785705566406,-2.547535181045532,21.145446289062498
1765999883726300700,23.85630078125,0.4584540128707886,-2.2129340171813965,-2.2240822315216064,21.164225585937498
1765999883745080000,23.875080078125,1.1982113122940063,-2.186819553375244,-2.5429537296295166,21.183004882812497
1765999883763859200,23.893859130859376,1.5503748655319214,-1.8699334859848025,-2.1730751991271973,21.201783935546874
1765999883782638600,23.912638671875,1.1267400979995728,-0.8865938782691956,-1.6778165102005005,21.2205634765625
1765999883801418000,23.93141796875,0.9227112531661988,0.1489746421575546,-1.0631338357925415,21.2393427734375
1765999883820197000,23.95019702148437,0.624456524848938,0.5020545125007629,-0.5874228477478027,21.25812182617187
1765999883838976500,23.9689765625,0.2338084876537323,0.8658244609832764,-0.1726456582546234,21.2769013671875
1765999883857756000,23.987755859375,-0.0392480604350566,1.4740930795669556,0.3239873945713043,21.2956806640625
1765999883876535000,24.00653515625,-0.1912006735801696,2.0924408435821533,0.8175661563873291,21.314459960937498
1765999883895314400,24.025314453125,-0.34193155169487,2.6435937881469727,1.16789710521698,21.333239257812497
1765999883914093600,24.044093505859376,-0.4189005196094513,2.925966024398804,1.462944746017456,21.352018310546875
1765999883932873000,24.062873046875,-0.4097375571727752,2.812192440032959,1.746538758277893,21.3707978515625
1765999883951652400,24.08165234375,-0.3930914998054504,2.437885046005249,1.9760712385177608,21.3895771484375
1765999883970431500,24.10043139648437,-0.398283839225769,2.029827356338501,2.1797945499420166,21.40835620117187
1765999883989211000,24.1192109375,-0.4413498044013977,1.692782640457153,2.3644285202026367,21.4271357421875
1765999884007990300,24.137990234375,-0.4940368831157684,1.5063161849975586,2.51668643951416,21.4459150390625
1765999884026769400,24.156769287109373,-0.5349648594856262,1.4575997591018677,2.633667230606079,21.464694091796872
1765999884045548800,24.175548828125,-0.5513054728507996,1.5136466026306152,2.686201572418213,21.483473632812498
1765999884064328000,24.194327880859376,-0.5627591609954834,1.5472440719604492,2.667570114135742,21.502252685546875
1765999884083107300,24.213107421875,-0.5430588126182556,1.4908918142318726,2.569221019744873,21.5210322265625
1765999884101886700,24.23188671875,-0.4888445436954498,1.3251948356628418,2.4113123416900635,21.5398115234375
1765999884120665900,24.25066577148437,-0.4784598350524902,0.9974658489227296,2.2465314865112305,21.55859057617187
1765999884139445200,24.2694453125,-0.5138899683952332,0.6227002739906311,2.0869431495666504,21.5773701171875
1765999884158224600,24.288224609375,-0.609948456287384,0.3638463318347931,1.901851177215576,21.5961494140625
1765999884177003800,24.307003662109373,-0.7779362797737122,0.2836703360080719,1.6643774509429932,21.614928466796872
1765999884195783200,24.325783203125,-1.0131192207336426,0.4030944108963012,1.3610830307006836,21.633708007812498
1765999884214562600,24.3445625,-1.281441569328308,0.6585885882377625,1.0064760446548462,21.652487304687497
1765999884233341700,24.363341796875,-1.5184571743011477,1.0651191473007202,0.668515145778656,21.6712666015625
1765999884252121000,24.38212109375,-1.718515396118164,2.359388828277588,-0.0568867810070514,21.6900458984375
1765999884270900200,24.40090014648437,-1.9540036916732788,3.404425859451294,-1.0371720790863037,21.70882495117187
1765999884289679600,24.4196796875,-1.8797836303710935,3.3534185886383057,-1.1590396165847778,21.7276044921875
1765999884308459000,24.438458984375,-1.095433235168457,2.159941434860229,-1.707137942314148,21.7463837890625
1765999884327238100,24.457238037109374,-0.036651886999607,-0.174172818660736,-1.7697516679763794,21.765162841796872
1765999884346017500,24.476017578125,-0.0685695707798004,-2.292804479598999,-1.3305398225784302,21.783942382812498
1765999884364797000,24.494796875,-0.3833176493644714,-2.867781162261963,-0.7882446646690369,21.802721679687497
1765999884383576000,24.513576171875,-0.4676169753074646,-2.091830015182495,-0.727921724319458,21.821500976562497
1765999884402355500,24.53235546875,-0.2787070572376251,-1.0930662155151367,-0.7390699982643127,21.8402802734375
1765999884421134800,24.551134765625,-0.0901025533676147,-0.7645736336708069,-0.6723330616950989,21.8590595703125
1765999884439914000,24.5699140625,-0.1104138121008873,-0.7331140637397766,-0.6451495885848999,21.8778388671875
1765999884458693400,24.588693359375,-0.0653625279664993,-0.6365974545478821,-0.608497679233551,21.8966181640625
1765999884477472800,24.60747265625,-0.0401643589138984,-0.5489383339881897,-0.4938078224658966,21.9153974609375
1765999884496252000,24.626251953125,0.0094684036448597,-0.2949713170528412,-0.29374960064888,21.934176757812498
1765999884515031300,24.64503125,0.1840230077505111,0.1162933856248855,-0.0437531881034374,21.952956054687498
1765999884533810700,24.663810791015624,0.4734202027320862,0.469678670167923,0.2676351368427276,21.971735595703123
1765999884552589800,24.68258984375,0.8104648590087891,0.4322631955146789,0.502359926700592,21.9905146484375
1765999884571369200,24.701369140625,1.1316269636154177,0.0032833982259035,0.5765799880027771,22.0092939453125
1765999884599538200,24.7295380859375,1.2776236534118652,-0.8868992924690247,0.3849211633205414,22.037462890624997
1765999884618317300,24.7483173828125,1.2093595266342163,-1.3491712808609009,0.1584430485963821,22.056242187499997
1765999884637096700,24.7670966796875,1.1675152778625488,-1.7451642751693726,-0.0568867810070514,22.075021484375
1765999884655876000,24.7858759765625,1.1640028953552246,-2.041433811187744,-0.2219729870557785,22.09380078125
1765999884674655200,24.8046552734375,1.0398445129394531,-2.312505006790161,-0.2520580887794494,22.112580078125
1765999884693434600,24.8234345703125,0.7771727442741394,-2.2935681343078613,-0.188069999217987,22.131359375
1765999884712214000,24.84221411132813,0.444404125213623,-1.978361964225769,-0.1304959952831268,22.150138916015628
1765999884730993200,24.8609931640625,0.11743875592947,-1.44584059715271,-0.0649807378649711,22.168917968749998
1765999884749772500,24.8797724609375,-0.1847866028547287,-0.824896514415741,0.0263435430824756,22.187697265624998
1765999884768551700,24.8985517578125,-0.3749182522296905,-0.1943313628435135,0.1564577370882034,22.206476562499997
1765999884787331000,24.9173310546875,-0.4923570156097412,0.2922224402427673,0.2280816435813903,22.225255859375
1765999884806110500,24.9361103515625,-0.583375871181488,0.442342460155487,0.2027307450771331,22.24403515625
1765999884824889600,24.9548896484375,-0.5769617557525635,0.298789232969284,0.1320231556892395,22.262814453125
1765999884853058600,24.98305859375,-0.4390590488910675,-0.0926223695278167,0.0736855641007423,22.290983398437497
1765999884871838000,25.001837890625,-0.4685332775115967,-0.4479929506778717,-0.0361173786222934,22.3097626953125
