time,seconds_elapsed,z,y,x,t
1765999880843679000,20.973678955078125,-2.081368923187256,-2.7445390224456787,-3.667708396911621,18.281603759765623
1765999880862458000,20.9924580078125,-1.2825106382369995,-1.3004547357559204,-4.261316299438477,18.300382812499997
1765999880881237500,21.011237548828124,-0.6666061878204346,-0.2636645138263702,-4.447477340698242,18.319162353515622
1765999880900016600,21.0300166015625,-0.185092031955719,-0.3785070776939392,-2.641761064529419,18.33794140625
1765999880918796000,21.048796142578126,-0.2860374450683594,3.008432626724243,-3.282252788543701,18.356720947265625
1765999880937575400,21.06757543945313,1.1841614246368408,1.073060393333435,-2.4838526248931885,18.37550024414063
1765999880956354600,21.0863544921875,2.2026257514953613,-2.4672064781188965,-2.1327579021453857,18.394279296875
1765999880975134000,21.105134033203125,2.139401197433472,-4.230620384216309,-1.4492002725601196,18.413058837890624
1765999880993913000,21.1239130859375,2.652069330215454,-6.2924418449401855,-0.4663189053535461,18.431837890624998
1765999881012692500,21.1426923828125,2.494924545288086,-5.328191757202148,0.5666534304618835,18.450617187499997
1765999881031471900,21.161471923828124,2.284176111221313,-2.297691583633423,1.4259874820709229,18.469396728515623
1765999881050251000,21.1802509765625,1.75929057598114,1.0441969633102417,2.0200533866882324,18.48817578125
1765999881069030400,21.199030517578127,1.1804962158203125,3.595168352127075,2.3111305236816406,18.506955322265625
1765999881087809500,21.2178095703125,0.8504765033721924,5.374311923980713,2.5140902996063232,18.525734375
1765999881106589000,21.2365888671875,0.5707004070281982,5.69074010848999,2.637026786804199,18.544513671875
1765999881125368300,21.255368408203125,0.4192059636116028,4.60126256942749,2.5817437171936035,18.563293212890624
1765999881144147500,21.2741474609375,0.4098902642726898,3.1544294357299805,2.477743864059448,18.582072265624998
1765999881162926800,21.2929267578125,0.3393353819847107,1.9617159366607664,2.471940755844116,18.600851562499997
1765999881181706000,21.3117060546875,0.1119409725069999,1.224096655845642,2.454072952270508,18.619630859375
1765999881200485400,21.3304853515625,-0.2032652497291565,1.1118502616882324,2.330219984054565,18.63841015625
1765999881219264800,21.3492646484375,-0.5429060459136963,1.5973349809646606,2.0507495403289795,18.657189453125
1765999881238044000,21.3680439453125,-0.7359393239021301,2.168798923492432,1.7040836811065674,18.67596875
1765999881256823300,21.3868232421875,-0.7646499872207642,2.4922518730163574,1.3708568811416626,18.694748046875
1765999881275602400,21.4056025390625,-0.841160774230957,2.434830665588379,1.0626755952835083,18.71352734375
1765999881294381800,21.4243818359375,-1.0236566066741943,2.113363027572632,0.7554106712341309,18.732306640624998
1765999881313161200,21.4431611328125,-1.158199667930603,2.1319944858551025,0.1265253722667694,18.751085937499997
1765999881331940400,21.4619404296875,-1.3474149703979492,1.9015456438064573,-0.5628355145454407,18.769865234374997
1765999881350719700,21.4807197265625,-1.0288490056991575,1.4579051733016968,-0.630641520023346,18.78864453125
1765999881369499100,21.4994990234375,-0.5290089249610901,0.784426748752594,-0.9788344502449036,18.807423828125
1765999881388278300,21.5182783203125,-0.0146607551723718,-0.0547487549483776,-0.9608139395713806,18.826203125
1765999881407057700,21.5370576171875,0.127365306019783,-0.9832631945610046,-0.6449968218803406,18.844982421875
1765999881425837000,21.55583715820313,0.0948367565870285,-1.5832850933074951,-0.2897789776325226,18.863761962890628
1765999881444616200,21.5746162109375,0.10125083476305,-1.7262275218963623,-0.1786015927791595,18.882541015624998
1765999881463395600,21.5933955078125,0.0743727833032608,-1.4852412939071655,-0.26137375831604,18.901320312499998
1765999881482174700,21.6121748046875,0.0537560991942882,-1.2268455028533936,-0.385532021522522,18.920099609374997
1765999881500954000,21.6309541015625,-0.0299323741346597,-0.8374192714691162,-0.4457022249698639,18.93887890625
1765999881519733500,21.6497333984375,-0.1559232324361801,-0.1915824711322784,-0.4475347995758056,18.957658203125
1765999881538512600,21.6685126953125,-0.3141372203826904,0.4626537263393402,-0.4267654120922088,18.9764375
1765999881557292000,21.6872919921875,-0.4334085583686828,0.8794162273406982,-0.4076758921146393,18.995216796875
1765999881576071400,21.70607153320313,-0.4045451879501343,0.97837632894516,-0.3778962194919586,19.013996337890628
1765999881594850600,21.7248505859375,-0.356745034456253,0.7952696084976196,-0.3355938494205475,19.032775390624998
1765999881613630000,21.7436298828125,-0.3089448511600494,0.4324159026145935,-0.2949713170528412,19.051554687499998
1765999881632409000,21.7624091796875,-0.2883281707763672,-0.0423787422478199,-0.2601520419120788,19.070333984374997
1765999881651188500,21.7811884765625,-0.2241873741149902,-0.3982074856758117,-0.2413679510354995,19.08911328125
1765999881669968000,21.7999677734375,-0.1954767256975174,-0.520991325378418,-0.2377027571201324,19.107892578125
1765999881688747000,21.8187470703125,-0.1826485693454742,-0.500832736492157,-0.2366337478160858,19.126671875
1765999881707526400,21.8375263671875,-0.2138026654720306,-0.3662897944450378,-0.2267071902751922,19.145451171875
1765999881726305500,21.856305419921878,-0.2302960157394409,-0.1622609496116638,-0.2094502598047256,19.164230224609376
1765999881745085000,21.8750849609375,-0.2408334463834762,0.0368809625506401,-0.1743255406618118,19.183009765625
1765999881763864300,21.8938642578125,-0.263893574476242,0.1343138962984085,-0.1249982044100761,19.201789062499998
1765999881782643500,21.9126435546875,-0.254730612039566,0.1549305766820907,-0.0613155514001846,19.220568359374997
1765999881801422800,21.9314228515625,-0.1983783394098281,0.1999818533658981,0.0243582334369421,19.239347656249997
1765999881820202200,21.9502021484375,-0.1272125840187072,0.3003163933753967,0.1350774765014648,19.258126953125
1765999881838981400,21.9689814453125,-0.0317649692296981,0.386448323726654,0.2687041461467743,19.27690625
1765999881857760800,21.9877607421875,0.0847574844956398,0.3968330323696136,0.4176024496555328,19.295685546875
1765999881876540000,22.006539794921878,0.1965457499027252,0.3204749226570129,0.5660426020622253,19.314464599609376
1765999881895319300,22.0253193359375,0.2933678030967712,0.1879172772169113,0.6918807029724121,19.333244140625
1765999881914098700,22.0440986328125,0.3761399984359741,0.0776561871170997,0.7477748394012451,19.352023437499998
1765999881932877800,22.0628779296875,0.4561632871627807,0.0121409371495246,0.7650317549705505,19.370802734374998
1765999881951657200,22.0816572265625,0.5531380772590637,-0.0220674909651279,0.696309506893158,19.389582031249997
1765999881970436400,22.10043627929688,0.6148353815078735,-0.0118355052545666,0.5776489973068237,19.408361083984378
1765999881989215700,22.1192158203125,0.7243329286575317,-0.2077703773975372,0.4475347995758056,19.427140625
1765999882007995100,22.1379951171875,0.96501362323761,-0.6480512022972107,0.2949713170528412,19.445919921875
1765999882036164000,22.1661640625,1.440266489982605,-1.6825506687164309,0.0208457615226507,19.474088867187497
1765999882054943200,22.184943115234372,1.6691880226135254,-2.339993953704834,-0.2450331300497055,19.49286791992187
1765999882073722600,22.20372265625,1.7053817510604858,-2.72025728225708,-0.583910346031189,19.5116474609375
1765999882092501800,22.22250170898437,1.6184862852096558,-2.731100082397461,-0.9226348996162416,19.53042651367187
1765999882111281200,22.24128125,1.454469084739685,-2.297691583633423,-1.263039231300354,19.5492060546875
1765999882130060500,22.260060546875,1.238681077957153,-1.7582979202270508,-1.61795175075531,19.5679853515625
1765999882148839700,22.278839599609373,1.000291109085083,-1.41270112991333,-1.9630903005599976,19.586764404296872
1765999882167619000,22.297619140625,0.703410804271698,-1.251891016960144,-2.230496406555176,19.605543945312498
1765999882186398500,22.3163984375,0.3213148713111877,-1.0524436235427856,-2.457890748977661,19.624323242187497
1765999882205177600,22.335177490234376,-0.2652680277824402,-0.7399863004684448,-2.7665302753448486,19.643102294921874
1765999882223957000,22.35395703125,-0.9537126421928406,-0.9905936121940612,-2.390542984008789,19.6618818359375
1765999882242736000,22.37273608398437,-1.7571525573730469,-0.2051742076873779,-2.276158571243286,19.68066088867187
1765999882261515500,22.391515625,-2.051283836364746,1.5050944089889526,-3.0873868465423584,19.6994404296875
1765999882280295000,22.410294921875,-1.5409064292907717,1.942015528678894,-3.656102180480957,19.7182197265625
1765999882299074000,22.429073974609373,-1.606421709060669,1.751883864402771,-3.0427937507629395,19.736998779296872
1765999882327243000,22.457242919921875,-1.266017198562622,0.8229112029075623,-2.169409990310669,19.765167724609373
1765999882346022400,22.4760224609375,-0.4616610705852508,-0.1935677826404571,-1.7132465839385986,19.783947265625
1765999882364801800,22.4948017578125,0.2055560052394867,-0.6469821333885193,-1.1061997413635254,19.8027265625
1765999882383581000,22.513580810546877,0.688902735710144,-0.6784417033195496,-0.4137845337390899,19.821505615234376
1765999882402360300,22.5323603515625,0.7533490061759949,-0.1413388401269912,0.2903898358345032,19.840285156249998
1765999882421139500,22.55113940429688,0.5897899270057678,0.9492074847221376,0.8534544706344604,19.85906420898438
1765999882439918800,22.5699189453125,0.5253437161445618,2.0307435989379883,1.2390629053115845,19.87784375
1765999882458698200,22.5886982421875,0.5369501113891602,2.493626356124878,1.5284600257873535,19.896623046875
1765999882477477400,22.607477294921875,0.5998691916465759,2.323806047439575,1.7587560415267944,19.915402099609373
1765999882496256800,22.6262568359375,0.6722567081451416,1.7141629457473757,1.954996347427368,19.934181640625
1765999882515036200,22.6450361328125,0.7284562587738037,1.0599267482757568,2.1648285388946533,19.9529609375
1765999882533815300,22.663815185546877,0.7254019379615784,0.6468294262886047,2.3554182052612305,19.971739990234376
1765999882552594700,22.6825947265625,0.6568323373794556,0.5468003153800964,2.504621982574463,19.990519531249998
1765999882571373800,22.70137377929688,0.5477929711341858,0.6517163515090942,2.622060775756836,20.00929858398438
1765999882590153200,22.7201533203125,0.4488328993320465,0.8114575147628784,2.6971969604492188,20.028078125
1765999882608932600,22.7389326171875,0.3656025826931,0.9424880146980286,2.725449562072754,20.046857421875
1765999882627711700,22.757711669921875,0.2988655865192413,0.9545525908470154,2.684216260910034,20.065636474609374
1765999882646491100,22.7764912109375,0.2576322257518768,0.7741947770118713,2.622213363647461,20.084416015625
1765999882665270300,22.795270263671878,0.2567159235477447,0.4835758209228515,2.538372278213501,20.103195068359376
1765999882684049700,22.814049560546877,0.2457203567028045,0.1425605714321136,2.434830665588379,20.121974365234376
1765999882702829000,22.8328291015625,0.1991419196128845,-0.183030366897583,2.2973861694335938,20.140753906249998
1765999882721608200,22.85160815429688,0.1311832070350647,-0.3531562089920044,2.119777202606201,20.15953295898438
1765999882740387600,22.8703876953125,0.0610864795744419,-0.4206567704677582,1.9081125259399412,20.178312499999997
1765999882759166700,22.889166748046875,-0.0109955659136176,-0.3898080885410309,1.677663803100586,20.197091552734374
1765999882777946000,22.907946044921875,-0.1046105921268463,-0.3661370873451233,1.4261401891708374,20.215870849609374
1765999882796725500,22.9267255859375,-0.2096793353557586,-0.3386481702327728,1.1598031520843506,20.234650390625
1765999882815504600,22.945504638671878,-0.3087921440601349,-0.2961930632591247,0.8708640933036804,20.253429443359376
1765999882834284000,22.964283935546877,-0.3903425931930542,-0.2270126193761825,0.5274053812026978,20.272208740234376
1765999882853063400,22.9830634765625,-0.5068650245666504,-0.229150652885437,0.1976911127567291,20.290988281249998
