time,seconds_elapsed,z,y,x,t
1765999883857756000,23.987755859375,-0.0392480604350566,1.4740930795669556,0.3239873945713043,21.2956806640625
1765999883876535000,24.00653515625,-0.1912006735801696,2.0924408435821533,0.8175661563873291,21.314459960937498
1765999883895314400,24.025314453125,-0.34193155169487,2.6435937881469727,1.16789710521698,21.333239257812497
1765999883914093600,24.044093505859376,-0.4189005196094513,2.925966024398804,1.462944746017456,21.352018310546875
1765999883932873000,24.062873046875,-0.4097375571727752,2.812192440032959,1.746538758277893,21.3707978515625
1765999883951652400,24.08165234375,-0.3930914998054504,2.437885046005249,1.9760712385177608,21.3895771484375
1765999883970431500,24.10043139648437,-0.398283839225769,2.029827356338501,2.1797945499420166,21.40835620117187
1765999883989211000,24.1192109375,-0.4413498044013977,1.692782640457153,2.077932894229889,21.4271357421875
1765999884007990300,24.137990234375,-0.4940368831157684,1.5063161849975586,2.1797945499420166,21.4459150390625
1765999884026769400,24.156769287109373,-0.5349648594856262,1.4575997591018677,-0.05337430909276005,21.464694091796872
1765999884045548800,24.175548828125,-0.5513054728507996,1.5136466026306152,-0.05337430909276005,21.483473632812498
1765999884064328000,24.194327880859376,-0.5627591609954834,1.5472440719604492,-0.05337430909276005,21.502252685546875
1765999884083107300,24.213107421875,-0.5430588126182556,1.4908918142318726,2.2465314865112305,21.5210322265625
1765999884101886700,24.23188671875,-0.4888445436954498,1.3251948356628418,2.1667373180389404,21.5398115234375
1765999884120665900,24.25066577148437,-0.4784598350524902,0.9974658489227296,2.2465314865112305,21.55859057617187
1765999884139445200,24.2694453125,-0.5138899683952332,0.6227002739906311,2.0869431495666504,21.5773701171875
1765999884158224600,24.288224609375,-0.609948456287384,0.3638463318347931,1.901851177215576,21.5961494140625
1765999884177003800,24.307003662109373,-0.7779362797737122,0.2836703360080719,1.6643774509429932,21.614928466796872
1765999884195783200,24.325783203125,-1.0131192207336426,0.4030944108963012,1.3610830307006836,21.633708007812498
1765999884214562600,24.3445625,-1.281441569328308,0.6585885882377625,1.0064760446548462,21.652487304687497
1765999884233341700,24.363341796875,-1.5184571743011477,1.0651191473007202,0.668515145778656,21.6712666015625
1765999884252121000,24.38212109375,-1.718515396118164,2.359388828277588,-0.0568867810070514,21.6900458984375
1765999884270900200,24.40090014648437,-1.5184571743011477,3.404425859451294,-1.0371720790863037,21.70882495117187
1765999884289679600,24.4196796875,-1.095433235168457,3.3534185886383057,-1.1590396165847778,21.7276044921875
1765999884308459000,24.438458984375,-1.095433235168457,2.159941434860229,-1.707137942314148,21.7463837890625
1765999884327238100,24.457238037109374,-0.036651886999607,-0.174172818660736,-1.7697516679763794,21.765162841796872
1765999884346017500,24.476017578125,-0.0685695707798004,-2.292804479598999,-1.3305398225784302,21.783942382812498
1765999884364797000,24.494796875,-0.3833176493644714,-2.867781162261963,-0.7882446646690369,21.802721679687497
1765999884383576000,24.513576171875,-0.4676169753074646,-2.091830015182495,-0.727921724319458,21.821500976562497
1765999884402355500,24.53235546875,-0.2787070572376251,-1.0930662155151367,-0.7390699982643127,21.8402802734375
1765999884421134800,24.551134765625,-0.0901025533676147,-0.7645736336708069,-0.6723330616950989,21.8590595703125
1765999884439914000,24.5699140625,-0.1104138121008873,-0.7331140637397766,-0.6451495885848999,21.8778388671875
1765999884458693400,24.588693359375,-0.0653625279664993,-0.6365974545478821,-0.608497679233551,21.8966181640625
1765999884477472800,24.60747265625,-0.0401643589138984,-0.5489383339881897,-0.4938078224658966,21.9153974609375
1765999884496252000,24.626251953125,0.0094684036448597,-0.2949713170528412,-0.29374960064888,21.934176757812498
1765999884515031300,24.64503125,0.1840230077505111,0.1162933856248855,-0.0437531881034374,21.952956054687498
1765999884533810700,24.663810791015624,0.4734202027320862,0.469678670167923,0.2676351368427276,21.971735595703123
1765999884552589800,24.68258984375,0.8104648590087891,0.4322631955146789,0.502359926700592,21.9905146484375
1765999884571369200,24.701369140625,1.1316269636154177,0.0032833982259035,0.5765799880027771,22.0092939453125
1765999884599538200,24.7295380859375,1.2776236534118652,-0.8868992924690247,0.3849211633205414,22.037462890624997
1765999884618317300,24.7483173828125,1.2093595266342163,-1.3491712808609009,0.1584430485963821,22.056242187499997
1765999884637096700,24.7670966796875,1.1675152778625488,-1.7451642751693726,-0.0568867810070514,22.075021484375
1765999884655876000,24.7858759765625,1.1640028953552246,-2.041433811187744,-0.2219729870557785,22.09380078125
1765999884674655200,24.8046552734375,1.0398445129394531,-2.312505006790161,-0.2520580887794494,22.112580078125
1765999884693434600,24.8234345703125,0.7771727442741394,-2.2935681343078613,-0.188069999217987,22.131359375
1765999884712214000,24.84221411132813,0.444404125213623,-1.978361964225769,-0.1304959952831268,22.150138916015628
1765999884730993200,24.8609931640625,0.11743875592947,-1.44584059715271,-0.0649807378649711,22.168917968749998
1765999884749772500,24.8797724609375,-0.1847866028547287,-0.824896514415741,0.0263435430824756,22.187697265624998
1765999884768551700,24.8985517578125,-0.3749182522296905,-0.1943313628435135,0.1564577370882034,22.206476562499997
1765999884787331000,24.9173310546875,-0.4923570156097412,0.2922224402427673,0.2280816435813903,22.225255859375
1765999884806110500,24.9361103515625,-0.583375871181488,0.442342460155487,0.2027307450771331,22.24403515625
1765999884824889600,24.9548896484375,-0.5769617557525635,0.298789232969284,0.1320231556892395,22.262814453125
1765999884853058600,24.98305859375,-0.4390590488910675,-0.0926223695278167,0.0736855641007423,22.290983398437497
1765999884871838000,25.001837890625,-0.4685332775115967,-0.4479929506778717,-0.0361173786222934,22.3097626953125
1765999884890617300,25.020617431640623,-0.7104357481002808,-0.6103302836418152,-0.2173915058374405,22.328542236328122
1765999884909396500,25.039396484375,-0.7478511929512024,-0.5145772099494934,-0.5092321634292603,22.3473212890625
1765999884928175900,25.05817578125,-0.3208567202091217,-0.312228262424469,-0.4986947476863861,22.3661005859375
1765999884946955000,25.076955078125,0.2417497336864471,-0.3661370873451233,-0.464944452047348,22.3848798828125
1765999884965734400,25.095734375,0.3367392122745514,-0.5193114280700684,-0.733572244644165,22.403659179687498
1765999884984513800,25.114513671875,-0.0997236743569374,-0.3120755553245544,-0.7564796805381775,22.422438476562498
1765999885003293000,25.13329296875,-0.2582430839538574,0.1027016416192054,-0.6135373115539551,22.441217773437497
1765999885022072300,25.152072265625,-0.3468184769153595,0.6908116936683655,-0.4105774760246277,22.4599970703125
1765999885040851700,25.170851806640623,-0.3132209181785583,1.0481675863265991,-0.3669006526470184,22.478776611328122
1765999885059630800,25.189630859375,-0.1598938554525375,0.8345176577568054,-0.3632354736328125,22.4975556640625
1765999885078410200,25.20841015625,-0.0606283284723758,0.325972706079483,-0.3363574147224426,22.5163349609375
1765999885097189600,25.227189697265626,-0.0335975624620914,-0.0147371124476194,-0.2832121849060058,22.535114501953124
1765999885115968800,25.24596875,-0.0113009987398982,-0.0831539705395698,-0.2389244884252548,22.553893554687498
1765999885134748200,25.264748046875,-0.0025961752980947,0.0538324601948261,-0.2117410004138946,22.572672851562498
1765999885153527600,25.283527587890624,0.0090102553367614,0.1833357959985733,-0.1857792437076568,22.591452392578123
1765999885172306700,25.302306640625,0.0114537142217159,0.1815031915903091,-0.1569158881902694,22.6102314453125
1765999885191086000,25.321086181640624,0.0346665754914283,0.0921642258763313,-0.1233183294534683,22.629010986328122
1765999885209865500,25.339865478515627,0.0545196831226348,-0.0026725335046648,-0.0915533602237701,22.647790283203125
1765999885228644600,25.35864453125,0.0734564885497093,-0.0420733131468296,-0.0591775253415107,22.6665693359375
1765999885247424000,25.377424072265622,0.0856737866997718,-0.0312304627150297,-0.028176138177514,22.68534887695312
1765999885266203400,25.396203369140625,0.0910188555717468,0.015347977168858,-0.0069485870189964,22.704128173828124
1765999885284982500,25.414982421875,0.0878118127584457,0.0474183782935142,0.0025198173243552,22.722907226562498
1765999885303762000,25.433761962890625,0.0742200687527656,0.0538324601948261,-0.0078648841008543,22.741686767578123
1765999885322541300,25.452541259765624,0.0575740039348602,0.0245109498500823,-0.0277179889380931,22.760466064453123
1765999885341320400,25.471320556640624,0.0368046015501022,-0.0026725335046648,-0.0568867810070514,22.779245361328122
1765999885360099800,25.490099853515623,0.019700389355421,-0.0220674909651279,-0.0860555768013,22.798024658203122
1765999885378879200,25.508879150390623,0.0100792692974209,-0.0119882216677069,-0.1066722646355629,22.81680395507812
1765999885397658400,25.527658447265622,-0.0051923505961894,0.008475748822093,-0.1141553521156311,22.83558325195312
1765999885416437800,25.546437744140626,-0.0137444576248526,0.0106137758120894,-0.1089630052447319,22.854362548828124
1765999885435217200,25.565217041015625,-0.0198531057685613,0.0118355052545666,-0.1033125072717666,22.873141845703124
1765999885453996300,25.583996337890625,-0.0251981727778911,0.0090866135433316,-0.0910952091217041,22.891921142578123
1765999885472775700,25.602775634765624,-0.0335975624620914,0.0194713156670331,-0.0781143307685852,22.910700439453123
1765999885491554800,25.621554931640624,-0.0346665754914283,0.0396298542618751,-0.054443322122097,22.929479736328123
1765999885510334200,25.640334228515623,-0.0363464541733264,0.0678823515772819,-0.025427246466279,22.948259033203122
1765999885529113600,25.659113525390627,-0.0311541035771369,0.0923169404268264,0.0003817904798779,22.967038330078125
1765999885547892700,25.677892822265623,-0.0270307660102844,0.1083521395921707,0.0277179889380931,22.98581762695312
1765999885566672100,25.696672119140626,-0.0206166859716177,0.0955239832401275,0.0512362830340862,23.004596923828124
1765999885585451500,25.715451416015625,-0.0184786599129438,0.05337430909276,0.0669660493731498,23.023376220703124
1765999885604230700,25.734230712890625,-0.0265726186335086,0.0052687088027596,0.075670875608921,23.042155517578124
1765999885623010000,25.753010009765624,-0.0340557098388671,-0.0252745300531387,0.07796161621809,23.060934814453123
1765999885641789400,25.77178955078125,-0.0436768308281898,-0.0523052960634231,0.0723111182451248,23.07971435546875
1765999885660568600,25.790568603515624,-0.0482583157718181,-0.058719377964735,0.0596356727182865,23.098493408203122
1765999885679348000,25.809347900390627,-0.0413860902190208,-0.0423787422478199,0.0454330667853355,23.117272705078125
1765999885698127400,25.82812744140625,-0.0363464541733264,-0.041767880320549,0.0370336771011352,23.136052246093747
1765999885716906500,25.846906494140622,-0.0300850905478,-0.036422811448574,0.0274125561118125,23.15483129882812
1765999885735686000,25.865685791015625,-0.0250454563647508,-0.0393244214355945,0.0145843969658017,23.173610595703124
1765999885754465300,25.88446533203125,-0.0222965646535158,-0.0461966507136821,0.0023671009112149,23.19239013671875
1765999885773244400,25.903244384765625,-0.0227547138929367,-0.0487928241491317,-0.0096974782645702,23.211169189453123
1765999885792023800,25.92202392578125,-0.0247400235384702,-0.0617737025022506,-0.0226783547550439,23.22994873046875
1765999885810803200,25.94080322265625,-0.024129157885909,-0.0875827372074127,-0.0377972573041915,23.24872802734375
1765999885829582300,25.959582275390623,-0.0238237269222736,-0.0949131175875663,-0.0523052960634231,23.267507080078122
1765999885848361700,25.97836181640625,-0.0209221187978982,-0.0985783040523529,-0.067576915025711,23.286286621093748
1765999885867141000,25.99714111328125,-0.0229074284434318,-0.0704785212874412,-0.083306685090065,23.305065917968747
