time,seconds_elapsed,z,y,x,t
1765999881838981400,21.9689814453125,-0.0317649692296981,0.386448323726654,0.2687041461467743,19.27690625
1765999881857760800,21.9877607421875,0.0847574844956398,0.3968330323696136,0.4176024496555328,19.295685546875
1765999881876540000,22.006539794921878,0.1965457499027252,0.3204749226570129,0.5660426020622253,19.314464599609376
1765999881895319300,22.0253193359375,0.2933678030967712,0.1879172772169113,0.6918807029724121,19.333244140625
1765999881914098700,22.0440986328125,0.3761399984359741,0.0776561871170997,0.7477748394012451,19.352023437499998
1765999881932877800,22.0628779296875,0.4561632871627807,0.0121409371495246,0.7650317549705505,19.370802734374998
1765999881951657200,22.0816572265625,0.5531380772590637,-0.0220674909651279,0.696309506893158,19.389582031249997
1765999881970436400,22.10043627929688,0.6148353815078735,-0.0118355052545666,0.5776489973068237,19.408361083984378
1765999881989215700,22.1192158203125,0.7243329286575317,-0.2077703773975372,0.4475347995758056,19.427140625
1765999882007995100,22.1379951171875,0.96501362323761,-0.6480512022972107,0.2949713170528412,19.445919921875
1765999882036164000,22.1661640625,1.440266489982605,-1.6825506687164309,0.0208457615226507,19.474088867187497
1765999882054943200,22.184943115234372,1.6691880226135254,-2.339993953704834,-0.2450331300497055,19.49286791992187
1765999882073722600,22.20372265625,1.7053817510604858,-2.72025728225708,-0.583910346031189,19.5116474609375
1765999882092501800,22.22250170898437,1.6184862852096558,-2.731100082397461,-0.9226348996162416,19.53042651367187
1765999882111281200,22.24128125,1.454469084739685,-2.297691583633423,-1.263039231300354,19.5492060546875
1765999882130060500,22.260060546875,1.238681077957153,-1.7582979202270508,-1.61795175075531,19.5679853515625
1765999882148839700,22.278839599609373,1.000291109085083,-1.41270112991333,-1.9630903005599976,19.586764404296872
1765999882167619000,22.297619140625,0.703410804271698,-1.251891016960144,-2.230496406555176,19.605543945312498
1765999882186398500,22.3163984375,0.3213148713111877,-1.0524436235427856,-2.457890748977661,19.624323242187497
1765999882205177600,22.335177490234376,-0.2652680277824402,-0.7399863004684448,-2.7665302753448486,19.643102294921874
1765999882223957000,22.35395703125,-0.9537126421928406,-0.9905936121940612,-2.390542984008789,19.6618818359375
1765999882242736000,22.37273608398437,-1.7571525573730469,-0.2051742076873779,-2.276158571243286,19.68066088867187
1765999882261515500,22.391515625,-2.051283836364746,1.5050944089889526,-3.0873868465423584,19.6994404296875
1765999882280295000,22.410294921875,-1.5409064292907717,1.942015528678894,-3.656102180480957,19.7182197265625
1765999882299074000,22.429073974609373,-1.606421709060669,1.751883864402771,-3.0427937507629395,19.736998779296872
1765999882327243000,22.457242919921875,-1.266017198562622,0.8229112029075623,-2.169409990310669,19.765167724609373
1765999882346022400,22.4760224609375,-0.4616610705852508,-0.1935677826404571,-1.7132465839385986,19.783947265625
1765999882364801800,22.4948017578125,0.2055560052394867,-0.6469821333885193,-1.1061997413635254,19.8027265625
1765999882383581000,22.513580810546877,0.688902735710144,-0.6784417033195496,-0.4137845337390899,19.821505615234376
1765999882402360300,22.5323603515625,0.7533490061759949,-0.1413388401269912,0.2903898358345032,19.840285156249998
1765999882421139500,22.55113940429688,0.5897899270057678,0.9492074847221376,0.8534544706344604,19.85906420898438
1765999882439918800,22.5699189453125,0.5253437161445618,2.0307435989379883,1.2390629053115845,19.87784375
1765999882458698200,22.5886982421875,0.5369501113891602,2.493626356124878,1.5284600257873535,19.896623046875
1765999882477477400,22.607477294921875,0.5998691916465759,2.323806047439575,1.7587560415267944,19.915402099609373
1765999882496256800,22.6262568359375,0.6722567081451416,1.7141629457473757,1.954996347427368,19.934181640625
1765999882515036200,22.6450361328125,0.7284562587738037,1.0599267482757568,2.1648285388946533,19.9529609375
1765999882533815300,22.663815185546877,0.7254019379615784,0.6468294262886047,2.3554182052612305,19.971739990234376
1765999882552594700,22.6825947265625,0.6568323373794556,0.5468003153800964,2.504621982574463,19.990519531249998
1765999882571373800,22.70137377929688,0.5477929711341858,0.6517163515090942,2.622060775756836,20.00929858398438
1765999882590153200,22.7201533203125,0.4488328993320465,0.8114575147628784,2.6971969604492188,20.028078125
1765999882608932600,22.7389326171875,0.3656025826931,0.9424880146980286,2.725449562072754,20.046857421875
1765999882627711700,22.757711669921875,0.2988655865192413,0.9545525908470154,2.684216260910034,20.065636474609374
1765999882646491100,22.7764912109375,0.2576322257518768,0.7741947770118713,2.622213363647461,20.084416015625
1765999882665270300,22.795270263671878,0.2567159235477447,0.4835758209228515,2.538372278213501,20.103195068359376
1765999882684049700,22.814049560546877,0.2457203567028045,0.1425605714321136,2.434830665588379,20.121974365234376
1765999882702829000,22.8328291015625,0.1991419196128845,-0.183030366897583,2.2973861694335938,20.140753906249998
1765999882721608200,22.85160815429688,0.1311832070350647,-0.3531562089920044,2.119777202606201,20.15953295898438
1765999882740387600,22.8703876953125,0.0610864795744419,-0.4206567704677582,1.9081125259399412,20.178312499999997
1765999882759166700,22.889166748046875,-0.0109955659136176,-0.3898080885410309,1.677663803100586,20.197091552734374
1765999882777946000,22.907946044921875,-0.1046105921268463,-0.3661370873451233,1.4261401891708374,20.215870849609374
1765999882796725500,22.9267255859375,-0.2096793353557586,-0.3386481702327728,1.1598031520843506,20.234650390625
1765999882815504600,22.945504638671878,-0.3087921440601349,-0.2961930632591247,0.8708640933036804,20.253429443359376
1765999882834284000,22.964283935546877,-0.3903425931930542,-0.2270126193761825,0.5274053812026978,20.272208740234376
1765999882853063400,22.9830634765625,-0.5068650245666504,-0.229150652885437,0.1976911127567291,20.290988281249998
1765999882871842600,23.00184252929688,-0.6858484148979187,-0.2935968935489654,-0.1138499230146408,20.30976733398438
1765999882890622000,23.0206220703125,-0.879339873790741,-0.1495855152606964,-0.7554106712341309,20.328546874999997
1765999882909401000,23.03940112304688,-0.8116865754127502,-0.1756999790668487,-1.5388447046279907,20.347325927734378
1765999882928180500,23.058180419921875,-0.2431241869926452,0.1286633908748626,-1.5542690753936768,20.366105224609374
1765999882946960000,23.0769599609375,0.3727802336215973,-0.1954003721475601,-1.4731767177581787,20.384884765625
1765999882975128800,23.10512890625,-0.1456912457942962,-0.9426407217979432,-0.9046143889427184,20.413053710937497
1765999882993908000,23.123907958984372,-0.5057960152626038,-0.7745001912117004,-0.5492438077926636,20.43183276367187
1765999883012687400,23.14268725585937,-0.5198459029197693,0.0069485870189964,-0.4420370161533355,20.45061206054687
1765999883031466800,23.161466796875,-0.2544251680374145,0.4844921231269836,-0.4293615818023681,20.4693916015625
1765999883050246000,23.18024584960937,-0.1186604797840118,0.3867537677288055,-0.3830885887145996,20.48817065429687
1765999883069025300,23.199025390625,-0.0975856482982635,0.0516944304108619,-0.3578903973102569,20.5069501953125
1765999883087804400,23.217804443359373,-0.1279761642217636,-0.2205985486507415,-0.3333030939102173,20.525729248046872
1765999883106583800,23.236583740234376,-0.1601992845535278,-0.2958876192569732,-0.3023017048835754,20.544508544921875
1765999883125363200,23.25536328125,-0.1829539984464645,-0.1272889524698257,-0.2642753720283508,20.563288085937497
1765999883144142300,23.274142333984376,-0.2251036763191223,0.1559995859861374,-0.2236528694629669,20.582067138671874
1765999883162921700,23.29292163085937,-0.2370155304670334,0.362930029630661,-0.1787542998790741,20.60084643554687
1765999883181701000,23.311701171875,-0.2402225732803344,0.4347066581249237,-0.1324812918901443,20.6196259765625
1765999883200480300,23.33048022460937,-0.2414443045854568,0.4030944108963012,-0.0932332351803779,20.63840502929687
1765999883219259600,23.349259765625,-0.2275471240282058,0.3007745444774627,-0.0556650534272193,20.6571845703125
1765999883238039000,23.3680390625,-0.1960875988006591,0.2004400044679641,-0.0171805713325738,20.675963867187498
1765999883256818200,23.386818115234377,-0.1635590493679046,0.1599702090024948,0.011224640533328,20.694742919921875
1765999883275597600,23.40559765625,-0.1441640853881836,0.1637881249189376,0.0293978676199913,20.713522460937497
1765999883294376700,23.424376708984376,-0.1096502244472503,0.2771035432815552,0.0474183782935142,20.732301513671874
1765999883313156000,23.44315600585937,-0.0755945146083831,0.2477820217609405,0.1315650045871734,20.75108081054687
1765999883331935500,23.461935546875,-0.047036588191986,0.1717293560504913,0.2322049736976623,20.7698603515625
1765999883350714600,23.48071459960937,0.0543669648468494,0.0701730921864509,0.3682751059532165,20.78863940429687
1765999883369494000,23.49949389648437,0.1962403059005737,-0.1249982044100761,0.5182424187660217,20.80741870117187
1765999883388273400,23.5182734375,0.3707949221134186,-0.2022725939750671,0.6662244200706482,20.8261982421875
1765999883407052500,23.537052490234377,0.4764745235443115,-0.2309832423925399,0.8230639100074768,20.844977294921875
1765999883425832000,23.55583203125,0.5722275972366333,-0.2002872824668884,0.9403499960899352,20.863756835937497
1765999883444611000,23.574611083984376,0.6798924803733826,-0.1877645552158355,0.9832631945610046,20.882535888671875
1765999883463390500,23.593390380859372,0.7987056970596313,-0.2612210512161255,0.9791398644447328,20.90131518554687
1765999883482169900,23.612169921875,0.9245438575744628,-0.4922806620597839,0.9288962483406068,20.9200947265625
1765999883500949000,23.63094897460937,1.0540472269058228,-0.8106939196586609,0.8102357983589172,20.93887377929687
1765999883519728400,23.64972827148437,1.152243733406067,-1.0866520404815674,0.585437536239624,20.95765307617187
1765999883538507800,23.6685078125,1.2269219160079956,-1.2482258081436155,0.2914588451385498,20.9764326171875
1765999883557287000,23.687286865234373,1.2973240613937378,-1.3818525075912476,-0.0518471486866474,20.995211669921872
1765999883576066300,23.70606640625,1.3373357057571411,-1.4003311395645142,-0.5619192123413086,21.013991210937498
1765999883594845700,23.724845703125,1.207221508026123,-1.34000825881958,-1.2705223560333252,21.032770507812497
1765999883613624800,23.743624755859376,1.1163554191589355,-1.102229118347168,-2.008752584457397,21.051549560546874
1765999883632404200,23.762404296875,1.1739293336868286,-0.7011964321136475,-2.676733016967773,21.0703291015625
1765999883651183600,23.78118359375,1.203098177909851,-0.5145772099494934,-3.228649377822876,21.0891083984375
1765999883669962800,23.79996264648437,1.1606431007385254,-0.5999455451965332,-3.666028499603272,21.10788745117187
1765999883688742100,23.8187421875,1.0879502296447754,-1.2227221727371216,-3.7804131507873535,21.1266669921875
1765999883707521500,23.837521484375,0.759304940700531,-3.7278785705566406,-2.547535181045532,21.145446289062498
1765999883726300700,23.85630078125,0.4584540128707886,-2.2129340171813965,-2.2240822315216064,21.164225585937498
1765999883745080000,23.875080078125,1.1982113122940063,-2.186819553375244,-2.5429537296295166,21.183004882812497
1765999883763859200,23.893859130859376,1.5503748655319214,-1.8699334859848025,-2.1730751991271973,21.201783935546874
1765999883782638600,23.912638671875,1.1267400979995728,-0.8865938782691956,-1.6778165102005005,21.2205634765625
1765999883801418000,23.93141796875,0.9227112531661988,0.1489746421575546,-1.0631338357925415,21.2393427734375
1765999883820197000,23.95019702148437,0.624456524848938,0.5020545125007629,-0.5874228477478027,21.25812182617187
1765999883838976500,23.9689765625,0.2338084876537323,0.8658244609832764,-0.1726456582546234,21.2769013671875
1765999883857756000,23.987755859375,-0.0392480604350566,1.4740930795669556,0.3239873945713043,21.2956806640625
