time,seconds_elapsed,z,y,x,t
1765999876768573200,16.8985732421875,-1.112250566482544,2.694766044616699,0.2173030376434326,14.225277587890623
1765999876787352600,16.9173525390625,-0.512592077255249,3.030536651611328,0.1515300273895263,14.244056884765623
1765999876806131700,16.936131591796876,0.0909496545791626,3.2548370361328125,0.0304527282714843,14.2628359375
1765999876824911000,16.9549111328125,0.3077148199081421,3.14155387878418,-0.0383796691894531,14.281615478515626
1765999876843690500,16.9736904296875,0.8708714246749878,2.557352066040039,-0.0767359733581543,14.300394775390625
1765999876862469600,16.9924697265625,1.3458702564239502,1.4865226745605469,0.1619131565093994,14.319174072265625
1765999876881249000,17.0112490234375,1.6844029426574707,0.8286476135253906,0.1423161029815673,14.337953369140624
1765999876900028200,17.030028076171874,1.563539981842041,0.3014631271362304,0.4738483428955078,14.356732421874998
1765999876918807600,17.0488076171875,1.3170939683914185,0.1957349777221679,0.7161579132080078,14.375511962890624
1765999876937587000,17.0675869140625,0.8761893510818481,-0.2178831100463867,0.1749753952026367,14.394291259765623
1765999876956366000,17.086365966796876,0.8777937889099121,-1.3229994773864746,-0.7262425422668457,14.4130703125
1765999876975145500,17.1051455078125,0.622750997543335,-3.215576171875,-1.3922581672668457,14.431849853515626
1765999876993924900,17.1239248046875,-0.2225374430418014,-4.508138656616211,-1.855479717254639,14.450629150390625
1765999877012704000,17.1427041015625,-1.1101839542388916,-4.903927803039551,-1.7240383625030518,14.469408447265625
1765999877031483400,17.1614833984375,-1.8720799684524536,-4.265763282775879,-1.041407585144043,14.488187744140625
1765999877050262500,17.180262451171874,-2.452855348587036,-3.260051727294922,-0.2775037288665771,14.506966796874998
1765999877069042000,17.1990419921875,-2.8728065490722656,-2.485690116882324,0.1487233638763427,14.525746337890624
1765999877087821000,17.217821044921877,-3.013920545578003,-2.0621161460876465,-0.2240664958953857,14.544525390625001
1765999877106600400,17.236600341796876,-3.010028839111328,-1.1745271682739258,-1.730008840560913,14.5633046875
1765999877125379600,17.255379638671876,-2.8055989742279053,1.2745695114135742,-2.4873931407928467,14.582083984375
1765999877144159000,17.274158935546875,-3.024977684020996,3.7977123260498047,-1.029415488243103,14.60086328125
1765999877162938000,17.292938232421875,-2.674610137939453,3.483426094055176,0.293759822845459,14.619642578125
1765999877181717500,17.311717529296875,-2.8968725204467773,1.1133756637573242,-1.0057874917984009,14.638421874999999
1765999877200497000,17.330496826171874,-2.9918508529663086,1.5325384140014648,-3.005703926086426,14.657201171874998
1765999877219276000,17.349276123046874,-2.7054834365844727,2.202670097351074,-4.340222358703613,14.675980468749998
1765999877238055400,17.368055419921873,-2.950871467590332,1.4128780364990234,-4.310866355895996,14.694759765624998
1765999877256834800,17.386834716796876,-3.5736584663391118,0.6932792663574219,-3.374477863311768,14.7135390625
1765999877275614000,17.405614013671876,-3.8685903549194336,0.5002784729003906,-1.79621684551239,14.732318359375
1765999877294393300,17.424393310546876,-3.920455455780029,0.1354351043701172,-0.8744362592697144,14.75109765625
1765999877313172500,17.44317236328125,-3.63742995262146,-0.49072265625,-0.6620575189590454,14.769876708984373
1765999877331951900,17.461951904296875,-3.1308226585388184,-1.2610769271850586,-0.846318781375885,14.788656249999999
1765999877350731000,17.48073095703125,-2.650476455688477,-1.5535335540771484,-0.4633393287658691,14.807435302734373
1765999877369510400,17.499510498046874,-2.2962372303009038,-2.015344619750977,0.6437785625457764,14.826214843749998
1765999877388289500,17.51828955078125,-1.931963801383972,-2.5589938163757324,1.7714486122131348,14.844993896484375
1765999877416458500,17.54645849609375,-2.491162061691284,-4.093559265136719,1.822046160697937,14.873162841796873
1765999877435238000,17.56523779296875,-2.374406337738037,-3.00169038772583,1.5647766590118408,14.891942138671876
1765999877454017000,17.58401708984375,-2.309858560562134,-0.7099285125732422,1.362879753112793,14.910721435546876
1765999877472796400,17.60279638671875,-1.46435284614563,-0.4515790939331054,0.949329137802124,14.929500732421875
1765999877491575800,17.621575927734376,-0.97025728225708,-1.571852684020996,1.4050923585891724,14.9482802734375
1765999877510355000,17.64035498046875,-1.0505766868591309,-1.547001838684082,2.5155344009399414,14.967059326171874
1765999877529134300,17.65913427734375,-0.8167390823364258,-0.5191717147827148,3.058025360107422,14.985838623046874
1765999877557303300,17.68730322265625,0.1769146919250488,0.675959587097168,3.080674171447754,15.014007568359375
1765999877576082400,17.70608251953125,0.8516035079956055,0.9702167510986328,3.093823909759521,15.032786865234375
1765999877594861800,17.72486181640625,1.6587934494018557,0.952373504638672,4.206043243408203,15.051566162109374
1765999877613641000,17.743640869140624,1.885854721069336,1.7564096450805664,5.818905353546143,15.070345214843748
1765999877632420400,17.76242041015625,1.915870189666748,3.491199493408203,6.100656986236572,15.089124755859373
1765999877651199700,17.78119970703125,2.670418262481689,4.582159042358398,4.7126312255859375,15.107904052734373
1765999877669979000,17.799978759765626,4.212831497192383,4.796260833740234,3.767766237258911,15.12668310546875
1765999877688758300,17.81875830078125,4.749864101409912,5.341096878051758,3.5767602920532227,15.145462646484376
1765999877707537400,17.837537353515625,5.052532196044922,4.730080604553223,3.486501455307007,15.16424169921875
1765999877726316800,17.85631689453125,4.565008163452148,3.9885215759277344,3.128824234008789,15.183021240234375
1765999877745096200,17.87509619140625,3.230336427688598,4.254638671875,1.7190974950790403,15.201800537109374
1765999877763875300,17.893875244140624,1.7798333168029783,5.384733200073242,-0.6574888229370117,15.220579589843748
1765999877782654700,17.91265478515625,1.1467716693878174,5.417571067810059,-2.3196921348571777,15.239359130859373
1765999877801433900,17.931433837890626,-0.094351053237915,3.802227973937988,-2.051967144012451,15.25813818359375
1765999877820213200,17.950213134765626,-1.0754122734069824,2.453610420227051,-0.8873904347419739,15.27691748046875
1765999877838992400,17.968992431640626,0.1576043963432312,0.8718290328979492,-0.0660548210144043,15.29569677734375
1765999877857771800,17.987771728515625,-5.536212921142578,-0.7588977813720703,-3.275458812713623,15.31447607421875
1765999877876551200,18.00655126953125,1.4837373495101929,0.5043621063232422,-5.733959674835205,15.333255615234375
1765999877895330300,18.025330322265624,-1.0751042366027832,-0.4256982803344726,-1.6292774677276611,15.352034667968748
1765999877914109700,18.044109619140624,-1.5540692806243896,-1.804059982299805,4.206889152526856,15.370813964843748
1765999877932888800,18.062888916015623,-1.683186173439026,-0.250615119934082,3.5664267539978027,15.389593261718748
1765999877951668200,18.081668212890627,-1.6201412677764893,-0.654200553894043,-0.7200512886047363,15.40837255859375
1765999877970447600,18.100447509765623,-1.890294313430786,-2.010697364807129,-3.660213470458984,15.427151855468747
1765999877989226800,18.119226806640626,-2.517031192779541,-3.2754130363464355,-6.078295707702637,15.44593115234375
1765999878008006100,18.138006103515625,-2.925809621810913,-4.473031997680664,-5.506714344024658,15.46471044921875
1765999878026785300,18.156785400390625,-3.4022233486175537,-5.023428916931152,-2.884922504425049,15.483489746093749
1765999878045564700,18.175564697265624,-3.562589168548584,-4.966964244842529,-1.5343422889709473,15.502269042968749
1765999878064343800,18.19434375,-3.388607978820801,-4.7862043380737305,-1.1479982137680054,15.521048095703126
1765999878083123200,18.213123291015624,-3.095249891281128,-4.376025199890137,-0.9780632257461548,15.539827636718748
1765999878101902300,18.23190234375,-3.0317623615264893,-3.7000112533569336,-1.1419576406478882,15.558606689453125
1765999878120681700,18.250681640625,-2.9492366313934326,-2.762516021728516,-1.1406162977218628,15.577385986328125
1765999878139461000,18.269461181640622,-2.7505366802215576,-1.8016624450683596,-1.1409969329833984,15.596165527343747
1765999878158240300,18.288240234375,-2.4016904830932617,-1.3001127243041992,-0.9108930230140686,15.614944580078124
1765999878177019600,18.30701953125,-1.4226655960083008,-1.401371955871582,0.6694010496139526,15.633723876953123
1765999878205188600,18.33518872070313,-1.5299830436706543,-1.6599979400634766,3.130623579025269,15.661893066406254
1765999878223967700,18.3539677734375,-2.6490869522094727,-1.5455169677734375,3.4097814559936523,15.680672119140624
1765999878242747100,18.3727470703125,-4.6598896980285645,1.231161117553711,3.387938976287842,15.699451416015624
1765999878261526500,18.391526611328125,1.645827054977417,6.689059257507324,5.8927836418151855,15.718230957031249
1765999878280305700,18.4103056640625,3.1012420654296875,9.64742374420166,0.8010903596878052,15.737010009765623
1765999878299085000,18.4290849609375,11.251579284667969,15.165972709655762,-5.786453723907471,15.755789306640626
1765999878317864200,18.4478642578125,8.255739212036133,10.250582695007324,-8.89992904663086,15.774568603515625
1765999878336643600,18.4666435546875,1.5231101512908936,2.0336484909057617,-6.506293773651123,15.793347900390625
1765999878355423000,18.485423095703126,-2.8507368564605717,0.3621425628662109,-1.173423409461975,15.81212744140625
1765999878374202000,18.5042021484375,-1.6105070114135742,0.1937847137451172,3.5801572799682617,15.830906494140624
1765999878392981500,18.5229814453125,1.1478333473205566,-1.2272062301635742,2.988587617874145,15.849685791015624
1765999878411760600,18.5417607421875,1.8754146099090576,-1.4302129745483398,0.0018499195575714,15.868465087890623
1765999878430540000,18.5605400390625,1.5039657354354858,-0.792262077331543,-1.070913791656494,15.887244384765623
1765999878449319400,18.5793193359375,1.2942787408828735,-0.1887121200561523,0.6803134679794312,15.906023681640626
1765999878468098600,18.5980986328125,1.307078242301941,0.6115226745605469,1.5999939441680908,15.924802978515626
1765999878496267500,18.626267578125,2.10083532333374,1.3702468872070312,-0.0717512071132659,15.952971923828123
1765999878515047000,18.645046875,2.084440231323242,0.7956180572509766,-0.5619155168533325,15.971751220703123
1765999878533826000,18.663825927734376,1.3606728315353394,0.1065826416015625,0.5793548226356506,15.9905302734375
1765999878552605400,18.68260546875,0.2449643611907959,-0.4013166427612304,1.661630153656006,16.009309814453125
1765999878571384600,18.70138452148437,-0.3207383155822754,-0.6376829147338867,2.104290246963501,16.028088867187495
1765999878590164000,18.7201640625,-1.158675193786621,-0.2079658508300781,1.7921534776687622,16.046868408203125
1765999878608943400,18.738943359375,-1.7245612144470217,0.1606168746948242,0.7479618787765503,16.065647705078124
1765999878627722500,18.757722412109374,-1.7207443714141846,-0.023564338684082,-0.1813890933990478,16.084426757812498
1765999878646502000,18.776501953125,-0.7598910331726074,-0.1671123504638672,-0.3494808077812195,16.103206298828123
1765999878665281000,18.795281005859376,-0.1125402450561523,0.1228275299072265,-0.1225656569004058,16.1219853515625
1765999878684060400,18.814060302734376,0.6310793161392212,0.0839223861694336,-0.1195681095123291,16.1407646484375
1765999878702839800,18.83283984375,0.8423396348953247,0.0688486099243164,0.3143844902515411,16.159544189453126
1765999878721619000,18.85161889648437,0.7081930637359619,0.1165637969970703,0.8419008255004883,16.178323242187496
1765999878740398300,18.8703984375,0.3432586193084717,0.02069091796875,0.9853026866912842,16.197102783203125
1765999878759177500,18.88917749023437,-0.0035681724548339,0.0244827270507812,0.8621602654457092,16.215881835937495
1765999878777956900,18.907956787109374,-0.2731962203979492,-0.0986404418945312,0.4000012576580047,16.234661132812498
1765999878796736300,18.926736328125,0.0437757968902587,-0.2400684356689453,0.1289792656898498,16.253440673828123
