time,seconds_elapsed,z,y,x,t
1765999870712259300,10.84225927734375,-2.289347887039185,-4.4803996086120605,0.7359714508056641,8.168963623046874
1765999870731038700,10.861038818359376,-1.8616769313812256,-5.37074089050293,0.3613412380218506,8.1877431640625
1765999870749817900,10.87981787109375,-2.1027932167053223,-6.634638786315918,-0.3396761417388916,8.206522216796873
1765999870768597200,10.89859716796875,-2.1869585514068604,-7.78473949432373,-0.8151516914367676,8.225301513671877
1765999870787376400,10.91737646484375,-2.1466283798217773,-8.269312858581543,-1.3857301473617554,8.244080810546876
1765999870815545300,10.94554541015625,-2.0798263549804688,-8.104286193847656,-1.7218561172485352,8.272249755859374
1765999870834324500,10.964324462890623,-2.20552134513855,-8.025428771972656,-1.7509526014328003,8.291028808593747
1765999870853103900,10.983103759765624,-2.2829031944274902,-7.812554359436035,-1.736992359161377,8.30980810546875
1765999870871883000,11.001883056640626,-2.406944274902344,-7.298468589782715,-1.4503377676010132,8.32858740234375
1765999870890662100,11.020662109375,-2.6475863456726074,-6.607331275939941,-0.8158987760543823,8.347366455078124
1765999870909441500,11.039441650390623,-2.917452335357666,-5.3096137046813965,-0.1813879013061523,8.36614599609375
1765999870937610200,11.0676103515625,-3.037648677825928,-1.9892654418945312,-0.5446032285690308,8.394314697265624
1765999870956389600,11.0863896484375,-3.193591833114624,-0.2047719955444336,-0.9411482214927672,8.413093994140624
1765999870975169000,11.1051689453125,-3.14426589012146,0.2077913284301757,-1.1194612979888916,8.431873291015624
1765999870993948200,11.1239482421875,-2.673725128173828,0.1779127120971679,-0.8506714701652527,8.450652587890627
1765999871012727300,11.142727294921874,-2.4584975242614746,1.3684768676757812,-0.6897838711738586,8.469431640625
1765999871031506700,11.161506591796876,-2.281038522720337,2.7558298110961914,-0.3396484851837158,8.4882109375
1765999871050285800,11.180285888671875,-2.1687958240509038,2.669231414794922,0.0095686912536621,8.506990234375
1765999871069065200,11.199065185546877,-2.0353028774261475,2.2770023345947266,0.2144206166267395,8.525769531250003
1765999871087844400,11.21784423828125,-1.5965077877044678,2.435845375061035,0.066558301448822,8.544548583984376
1765999871106623700,11.236623779296876,-1.2941615581512451,2.46809196472168,0.0987511277198791,8.563328125000002
1765999871125403000,11.25540283203125,-0.958031177520752,2.192641258239746,0.2842989563941955,8.582107177734375
1765999871144182300,11.274182373046877,-1.2045998573303225,1.4672441482543943,1.098997712135315,8.60088671875
1765999871162961400,11.29296142578125,-1.1850805282592771,0.5489311218261719,2.264347553253174,8.619665771484375
1765999871181740800,11.31174072265625,-1.5491032600402832,-0.2060403823852539,3.212460994720459,8.638445068359374
1765999871200520000,11.33052001953125,-2.339496612548828,-0.69775390625,2.8935794830322266,8.657224365234374
1765999871219299000,11.349299072265625,-5.510990142822266,0.3225946426391601,2.048487901687622,8.67600341796875
1765999871238078500,11.368078369140624,-0.1373584270477295,4.857236862182617,2.703212022781372,8.69478271484375
1765999871256857600,11.386857666015626,5.422679901123047,7.139881134033203,4.499233722686768,8.71356201171875
1765999871275637000,11.405636962890624,6.059017181396484,8.908909797668457,0.5981401205062866,8.73234130859375
1765999871294416100,11.424416015625,8.107770919799805,7.225662231445312,-4.198879241943359,8.751120361328127
1765999871313195500,11.443195556640624,5.509603500366211,3.248421669006348,-9.367140769958496,8.769899902343749
1765999871331974700,11.461974609375,4.555755138397217,-0.2576503753662109,-9.48178482055664,8.788678955078126
1765999871350754000,11.480754150390624,5.672622680664063,-0.7739162445068359,-5.518817901611328,8.807458496093748
1765999871369533200,11.499533203125,6.699895858764648,-0.528569221496582,-0.5008513927459717,8.826237548828125
1765999871388312600,11.5183125,6.213188171386719,0.275827407836914,0.9524917602539062,8.845016845703125
1765999871407091700,11.537091796875,4.987495422363281,0.5351371765136719,0.1207784414291381,8.863796142578124
1765999871425871000,11.55587109375,3.908501148223877,0.1531629562377929,-0.691756010055542,8.882575439453124
1765999871454039800,11.584039794921877,3.0620980262756348,-0.1421079635620117,-1.0746216773986816,8.910744140625003
1765999871472819200,11.602819091796874,3.119368553161621,0.1978425979614257,-0.7212370038032532,8.929523437499999
1765999871500988000,11.63098779296875,3.270538330078125,1.2270746231079102,0.3158901929855346,8.957692138671874
1765999871519767300,11.649767333984377,3.8504750728607178,2.151360511779785,0.8338326811790466,8.976471679687503
1765999871538546700,11.668546630859376,1.901898980140686,2.9490137100219727,0.3816368281841278,8.995250976562502
1765999871557325800,11.687325927734374,-0.0613703727722168,4.229527473449707,-0.1541676819324493,9.014030273437498
1765999871576105000,11.70610498046875,-1.1924238204956057,5.286752700805664,-0.3591489791870117,9.032809326171876
1765999871594884400,11.72488427734375,-1.800034761428833,5.038081169128418,-1.278621792793274,9.051588623046875
1765999871613663500,11.74366357421875,-1.8603427410125728,4.311690330505371,-1.703111171722412,9.070367919921875
1765999871632443000,11.76244287109375,-1.0656416416168213,2.9294376373291016,-0.1898074746131897,9.089147216796874
1765999871651222000,11.781221923828124,-0.3161871433258056,1.648137092590332,2.031211853027344,9.107926269531248
1765999871670001400,11.80000146484375,-1.1617565155029297,1.8739080429077148,1.3004214763641355,9.126705810546873
1765999871688780500,11.818780517578125,-1.3776826858520508,2.850226402282715,-2.2145509719848637,9.14548486328125
1765999871707560000,11.837559814453124,-7.525723457336426,-2.984416484832764,-3.614466190338135,9.16426416015625
1765999871726339000,11.856339111328126,-4.488944053649902,-2.0501861572265625,-8.37722396850586,9.18304345703125
1765999871745118200,11.8751181640625,-2.3901140689849854,5.276740074157715,-2.0246570110321045,9.201822509765623
1765999871763897600,11.893897705078125,-1.6545628309249878,0.6111974716186523,3.0875496864318848,9.220602050781249
1765999871782677000,11.912677001953124,-1.2249741554260254,-2.747857093811035,0.9013205766677856,9.239381347656249
1765999871810845700,11.940845703125,-0.8403749465942383,-1.636850357055664,0.3420276641845703,9.267550048828124
1765999871829625000,11.959625,-2.4317104816436768,-2.5826311111450195,3.559359550476074,9.286329345703127
1765999871848404200,11.978404296875,-3.656057357788086,-2.041587829589844,3.3243050575256348,9.305108642578126
1765999871867183600,11.99718359375,-2.886969327926636,-1.099040985107422,1.3272602558135986,9.323887939453126
1765999871885962800,12.015962646484375,-2.4017696380615234,-1.2045307159423828,0.0321573019027709,9.3426669921875
1765999871904742100,12.0347421875,-2.5009565353393555,-2.130767822265625,-0.7392650842666626,9.361446533203125
1765999871923521300,12.053521240234376,-2.267597198486328,-3.292637825012207,-0.3573564291000366,9.380225585937502
1765999871942300700,12.07230078125,-2.12442684173584,-4.18293571472168,0.0146428346633911,9.399005126953124
1765999871961079800,12.091079833984375,-2.1601827144622803,-4.812736511230469,0.2146525382995605,9.417784179687501
1765999871979859000,12.10985888671875,-2.184055089950561,-5.399994373321533,0.3311821222305298,9.436563232421875
1765999871998638300,12.128638427734376,-2.1169633865356445,-5.900509357452393,0.2990182638168335,9.4553427734375
1765999872017417700,12.147417724609374,-1.888760089874268,-6.4182868003845215,-0.0642405748367309,9.4741220703125
1765999872036196900,12.16619677734375,-1.6367833614349363,-6.584832191467285,-0.3152536153793335,9.492901123046874
1765999872054976000,12.18497607421875,-1.3509421348571775,-6.436895370483398,-0.4317164421081543,9.511680419921873
1765999872073755400,12.20375537109375,-1.1419353485107422,-5.891839981079102,-0.4457024335861206,9.530459716796877
1765999872092534500,12.222534423828124,-1.082736253738403,-5.185286998748779,-0.4523088335990906,9.54923876953125
1765999872111314000,12.24131396484375,-1.2538695335388184,-4.663510322570801,-0.2071624994277954,9.568018310546876
1765999872130093000,12.260093017578123,-1.6164946556091309,-4.290855884552002,0.2966656684875488,9.58679736328125
1765999872148872400,12.27887255859375,-1.885918140411377,-3.3421592712402344,0.9508918523788452,9.605576904296875
1765999872167651600,12.297651611328124,-1.91644287109375,-1.6079931259155271,1.2774399518966677,9.624355957031248
1765999872186431000,12.316430908203126,-1.817149639129639,-0.3335046768188476,0.9695730805397034,9.643135253906252
1765999872205210000,12.335210205078123,-1.9348397254943848,-0.2038707733154297,0.6652075052261353,9.661914550781248
1765999872223989500,12.353989501953125,-2.203720092773437,-0.2765121459960937,0.8764424920082092,9.68069384765625
1765999872242768600,12.3727685546875,-2.1354384422302246,0.4631938934326172,1.5780019760131836,9.699472900390624
1765999872261548000,12.391548095703126,-2.1367435455322266,1.771648406982422,1.9193271398544312,9.71825244140625
1765999872280327200,12.4103271484375,-2.5795040130615234,2.179440498352051,1.6468443870544434,9.737031494140624
1765999872299106600,12.4291064453125,-2.8852906227111816,1.6997814178466797,1.5983155965805054,9.755810791015627
1765999872317885700,12.4478857421875,-2.864373207092285,1.225629806518555,1.005307912826538,9.774590087890626
1765999872336665000,12.4666650390625,-2.054419994354248,4.081754684448242,-0.5881113409996033,9.793369384765626
1765999872355444200,12.4854443359375,-0.3936290740966797,8.942641258239746,-2.4983296394348145,9.812148681640625
1765999872374223600,12.5042236328125,1.1149778366088867,9.414328575134276,-2.5793821811676025,9.830927978515625
1765999872393002800,12.523002685546874,5.562289237976074,6.092218399047852,-3.974839210510254,9.849707031249999
1765999872411782100,12.5417822265625,5.035168170928955,3.083001136779785,-4.3980231285095215,9.868486572265624
1765999872430561300,12.560561279296875,3.225217342376709,2.5179691314697266,-5.288163661956787,9.887265625000001
1765999872449340700,12.579340576171877,1.5856565237045288,2.7745723724365234,-4.2126994132995605,9.906044921875
1765999872468119800,12.598119873046874,1.6700572967529297,0.999908447265625,-1.293271780014038,9.92482421875
1765999872486899200,12.616899169921876,2.0114216804504395,-1.3895740509033203,0.2655380368232727,9.943603515625
1765999872505678300,12.63567822265625,2.2627100944519043,-2.371656894683838,0.3570475578308105,9.962382568359374
1765999872524457700,12.654457763671877,2.032076358795166,-1.355377197265625,0.634530782699585,9.981162109375003
1765999872543236900,12.67323681640625,2.2636818885803223,0.1761665344238281,1.6475086212158203,9.999941162109376
1765999872562016300,12.692016357421876,2.4031822681427,1.0722532272338867,1.923210382461548,10.018720703125002
1765999872580795400,12.71079541015625,2.7355990409851074,0.4399080276489258,1.0840730667114258,10.037499755859375
1765999872599574800,12.72957470703125,3.349311828613281,-0.4514741897583008,-0.6672928333282471,10.056279052734375
1765999872618354000,12.74835400390625,4.071521282196045,-0.2159671783447265,-2.765145778656006,10.075058349609375
1765999872637133300,12.76713330078125,4.382566452026367,0.5990104675292969,-3.9048972129821777,10.093837646484374
1765999872655912400,12.785912353515624,3.836636543273926,1.260854721069336,-3.512683629989624,10.112616699218748
1765999872674691800,12.80469189453125,2.201221466064453,1.3040199279785156,-1.926686763763428,10.131396240234373
1765999872693471000,12.823470947265625,0.2497472763061523,0.8176984786987305,-0.2495077848434448,10.15017529296875
1765999872712250400,12.84225048828125,-0.8958487510681152,0.1158018112182617,0.8364459276199341,10.168954833984376
1765999872731029500,12.861029541015624,-1.652257204055786,-0.0370426177978515,1.1036701202392578,10.18773388671875
1765999872749809000,12.879808837890623,-2.1297104358673096,0.4508295059204101,0.3483625948429107,10.20651318359375
