time,seconds_elapsed,z,y,x,t
1765999890975111700,31.105111572265624,0.6669116020202637,0.8841503858566284,1.1727839708328247,28.413036376953123
1765999890993890800,31.123890869140624,0.6466003656387329,0.7627410292625427,1.1391865015029907,28.431815673828122
1765999891012670200,31.142670166015623,0.5604684352874756,0.5144245028495789,1.139797329902649,28.450594970703122
1765999891031449600,31.16144970703125,0.4569268524646759,0.2213621288537979,1.181794285774231,28.469374511718748
1765999891050228700,31.180228759765622,0.3584249019622803,-0.0500145554542541,1.2492948770523071,28.48815356445312
1765999891069008100,31.199008056640626,0.2791652083396911,-0.2051742076873779,1.314504623413086,28.506932861328124
1765999891097177000,31.227177001953127,0.2031125426292419,-0.1845575273036956,1.3791035413742063,28.535101806640625
1765999891115956500,31.24595654296875,0.2110537886619568,-0.067576915025711,1.3641374111175537,28.553881347656247
1765999891134735600,31.26473559570313,0.2551887631416321,0.0258853957056999,1.3166426420211792,28.572660400390628
1765999891153515000,31.283514892578125,0.2848156988620758,-0.0136680994182825,1.2587631940841677,28.591439697265624
1765999891172294400,31.30229443359375,0.2890917658805847,-0.1136972084641456,1.1744638681411743,28.61021923828125
1765999891191073500,31.321073486328125,0.2451094985008239,-0.2598465979099273,1.0626755952835083,28.628998291015623
1765999891209853000,31.33985302734375,0.2046397030353546,-0.3774380683898926,0.9389755129814148,28.64777783203125
1765999891228632000,31.358632080078124,0.1540906429290771,-0.4177551567554474,0.7934370040893555,28.666556884765622
1765999891247411500,31.377411376953123,0.0711657479405403,-0.4428006112575531,0.6237692832946777,28.685336181640622
1765999891266190800,31.39619091796875,-0.0401643589138984,-0.4496728479862213,0.4434114694595337,28.704115722656248
1765999891294359800,31.42435986328125,-0.1385135948657989,-0.3586539924144745,0.1984546929597854,28.73228466796875
1765999891313139000,31.443138916015624,-0.1653916388750076,-0.147905632853508,-0.0170278549194335,28.751063720703122
1765999891331918300,31.46191845703125,-0.3168860971927643,0.1920406222343444,-0.4956403970718384,28.769843261718748
1765999891350697700,31.48069775390625,-0.5358811020851135,0.2210566848516464,-1.021289587020874,28.788622558593747
1765999891369476900,31.499476806640622,-0.729983389377594,-0.0497091226279735,-1.247156858444214,28.80740161132812
1765999891388256300,31.51825634765625,-0.5300779342651367,-0.3061196208000183,-1.0822232961654663,28.82618115234375
1765999891407035600,31.53703564453125,-0.1968511790037155,-0.4069122970104217,-0.9475276470184326,28.84496044921875
1765999891425814800,31.555814697265625,-0.1386663019657135,-0.5000692009925842,-0.9763910174369812,28.863739501953123
1765999891444594200,31.57459423828125,-0.3370446562767029,-0.4615846872329712,-0.9105703234672546,28.88251904296875
1765999891463373600,31.59337353515625,-0.2414443045854568,-0.3146717250347137,-0.7757219076156616,28.90129833984375
1765999891491542500,31.62154248046875,0.0355828739702701,-0.215253472328186,-0.5632936954498291,28.92946728515625
1765999891510321700,31.64032177734375,0.0004581485991366,-0.5251146554946899,-0.4194350242614746,28.94824658203125
1765999891529101000,31.65910107421875,-0.0817031636834144,-0.6329322457313538,-0.3007745444774627,28.96702587890625
1765999891547880400,31.67788037109375,-0.0963639169931411,-0.4632645845413208,-0.2044106274843216,28.98580517578125
1765999891566659600,31.69665966796875,-0.0998763889074325,-0.1749363988637924,-0.1410334110260009,29.004584472656248
1765999891585439000,31.71543896484375,-0.1498145908117294,0.1075885593891143,-0.0939968153834343,29.023363769531247
1765999891604218400,31.73421826171875,-0.1634063273668289,0.241062507033348,-0.0600938238203525,29.042143066406247
1765999891622997500,31.75299755859375,-0.1281288862228393,0.2283870726823806,-0.0304668806493282,29.06092236328125
1765999891641777000,31.77177685546875,-0.0810922980308532,0.2297615110874176,0.0031306820455938,29.07970166015625
1765999891660556300,31.790556396484376,-0.0500909127295017,0.2742019295692444,0.0504727028310298,29.098481201171875
1765999891679335400,31.80933544921875,-0.0343611426651477,0.3612501621246338,0.0993418842554092,29.11726025390625
1765999891698114800,31.82811474609375,-0.0238237269222736,0.4450913369655609,0.1414915472269058,29.13603955078125
1765999891716894200,31.84689428710937,0.0013744457392022,0.4585303664207458,0.1807396113872528,29.15481909179687
1765999891735673300,31.86567333984375,0.0310013871639966,0.4128682315349579,0.2196822464466095,29.173598144531248
1765999891754452700,31.88445263671875,0.0455094277858734,0.3221548199653625,0.2351065874099731,29.192377441406247
1765999891773232000,31.90323217773437,0.0313068181276321,0.2380081862211227,0.2260963320732116,29.21115698242187
1765999891792011300,31.92201123046875,0.0154243353754282,0.2192240953445434,0.1969275325536728,29.22993603515625
1765999891810790700,31.940790771484377,0.0167987812310457,0.2283870726823806,0.1547778695821762,29.248715576171875
1765999891829570000,31.959570068359376,0.0313068181276321,0.2462548613548278,0.1278998106718063,29.267494873046875
1765999891848349200,31.97834912109375,0.0445931293070316,0.2456440031528473,0.1184314116835594,29.28627392578125
1765999891867128600,31.997128662109372,0.0621554926037788,0.2143371850252151,0.1103374511003494,29.30505346679687
1765999891895297500,32.02529760742188,0.0842993408441543,0.1689804643392563,0.0900261998176574,29.333222412109375
1765999891914077000,32.04407690429687,0.1114828214049339,0.1851683855056762,0.0900261998176574,29.35200170898437
1765999891932856000,32.06285595703125,0.1311832070350647,0.1802814751863479,0.0694095119833946,29.370780761718752
1765999891951635500,32.08163549804687,0.106595903635025,0.1472947746515274,0.0064904382452368,29.38956030273437
1765999891970414800,32.100414794921875,0.0817031636834144,0.0797942131757736,-0.0381026901304721,29.408339599609373
1765999891989194000,32.11919409179688,0.1049160286784172,-0.0005345066892914,-0.0439059063792228,29.427118896484377
1765999892007973400,32.137973388671874,0.1223256736993789,-0.0342847853899002,-0.042989607900381,29.445898193359376
1765999892026752800,32.15675268554688,0.0746782198548317,-0.0385608375072479,-0.0684932097792625,29.46467749023438
1765999892045532200,32.1755322265625,0.0357355885207653,-0.0245109498500823,-0.0860555768013,29.483457031250005
1765999892064311300,32.19431127929688,0.0346665754914283,0.0170278549194335,-0.0816268026828765,29.502236083984386
1765999892083090700,32.21309057617187,0.0345138609409332,0.0298560168594121,-0.0817795246839523,29.521015380859374
1765999892101869800,32.231869873046875,0.0471893027424812,0.0022143847309052,-0.0800996422767639,29.539794677734378
1765999892130038800,32.26003881835938,0.0423023849725723,-0.1810450553894043,-0.1228601783514022,29.56796362304688
1765999892148818200,32.27881811523437,0.0526870861649513,-0.3517817556858063,-0.1382845193147659,29.586742919921875
1765999892167597600,32.29759765625,0.1062904745340347,-0.4551706314086914,-0.1518762558698654,29.6055224609375
1765999892186376700,32.31637670898437,0.1437059342861175,-0.4965566992759704,-0.1604283601045608,29.624301513671874
1765999892205156000,32.335156005859375,0.1521053314208984,-0.5506182312965393,-0.1114064678549766,29.643080810546877
1765999892223935500,32.353935546875,0.1768453568220138,-0.4796051979064941,-0.051083568483591,29.661860351562503
1765999892242714600,32.372714599609374,0.2425133138895034,-0.4153116941452026,0.0161115583032369,29.680639404296876
1765999892261494000,32.39149389648438,0.3040579557418823,-0.4473820924758911,0.0794887766242027,29.69941870117188
1765999892289663000,32.4196630859375,0.3161225318908691,-0.4660134613513946,0.1230128929018974,29.727587890625003
1765999892308442400,32.4384423828125,0.328492522239685,-0.4638754427433014,0.1570686101913452,29.7463671875
1765999892327221800,32.4572216796875,0.3610210716724396,-0.4498255550861358,0.1937204897403717,29.765146484375002
1765999892346001000,32.4760009765625,0.4135554432868957,-0.3844630122184753,0.2253327518701553,29.783925781250005
1765999892374169900,32.504169921875,0.5548179149627686,-0.3924042582511902,0.2963457703590393,29.8120947265625
1765999892392949200,32.52294921875,0.6200277805328369,-0.3563632369041443,0.367053359746933,29.830874023437502
1765999892411728600,32.541728759765626,0.6736311316490173,-0.1975383907556533,0.4446332156658172,29.849653564453128
1765999892430507800,32.5605078125,0.7263182401657104,0.040240716189146,0.5358047485351562,29.8684326171875
1765999892449287200,32.579287109375,0.7925970554351807,0.1007163301110267,0.6100248694419861,29.887211914062505
1765999892468066600,32.59806665039063,0.8396336436271667,0.0764344558119773,0.6417897939682007,29.90599145507813
1765999892486846000,32.616845947265624,0.8092431426048279,-0.0141262477263808,0.6834813356399536,29.924770751953126
1765999892505625000,32.635625,0.7087558507919312,-0.1517235338687896,0.7445678114891052,29.9435498046875
1765999892524404500,32.65440454101562,0.6119337677955627,-0.1859319657087326,0.7873283624649048,29.962329345703125
1765999892543184000,32.673183837890626,0.5152644515037537,-0.06146826967597,0.7541889548301697,29.98110864257813
1765999892561963000,32.691962890625,0.2860374450683594,-0.0437531881034374,0.7456368207931519,29.999887695312502
1765999892580742400,32.710742431640625,-0.002443459117785,-0.2271653413772583,0.7241038084030151,30.018667236328128
1765999892599521800,32.72952172851563,-0.2661843299865722,-0.4687623679637909,0.6920334100723267,30.03744653320313
1765999892618301000,32.748301025390624,-0.4894554018974304,-0.6840922236442566,0.6947823166847229,30.056225830078127
1765999892637080300,32.76708032226563,-0.6962331533432007,-0.7766382098197937,0.7578541040420532,30.07500512695313
1765999892655859700,32.78585961914062,-0.8587231636047363,-0.5971966981887817,0.7906880974769592,30.093784423828126
1765999892674638800,32.80463891601563,-0.9509637355804444,-0.3107011020183563,0.7781654000282288,30.11256372070313
1765999892693418200,32.82341821289062,-1.0291544198989868,-0.0884990319609642,0.7659480571746826,30.131343017578125
1765999892712197600,32.84219775390625,-1.0946696996688845,0.0179441533982753,0.7642682194709778,30.15012255859375
1765999892730977000,32.86097705078125,-1.138651967048645,-0.1153770834207534,0.7793871164321899,30.168901855468754
1765999892749756200,32.879756103515625,-1.167820692062378,-0.3064250349998474,0.8102357983589172,30.187680908203127
1765999892777925000,32.907925048828126,-1.204319953918457,-0.3775908052921295,0.8238275051116943,30.21584985351563
1765999892796704500,32.92670458984375,-1.3188570737838743,-0.4017199575901031,0.6961567997932434,30.234629394531254
1765999892815484000,32.94548388671875,-1.4483604431152344,-0.6622537970542908,0.4117992222309112,30.25340869140625
1765999892834263000,32.96426293945313,-1.6148210763931274,-1.021289587020874,0.0414624474942684,30.27218774414063
1765999892853042400,32.98304248046875,-1.777005672454834,-1.338481068611145,-0.3206276595592499,30.29096728515625
1765999892871821800,33.00182177734375,-1.862526655197144,-1.5477023124694824,-0.599334716796875,30.309746582031252
1765999892890601200,33.020601318359375,-1.8577924966812132,-1.237993836402893,-0.8474985361099243,30.328526123046878
1765999892909380400,33.03938037109375,-1.9425499439239504,-0.5678751468658447,-1.128801703453064,30.34730517578125
1765999892928159700,33.05815966796875,-2.06121039390564,-0.1159879490733146,-1.398193120956421,30.366084472656254
1765999892946939100,33.07693920898438,-2.020282506942749,0.3012326955795288,-1.67644202709198,30.38486401367188
1765999892965718300,33.09571826171875,-1.8710788488388064,0.5183951258659363,-1.9065853357315063,30.403643066406254
1765999892984497700,33.11449755859375,-1.6245949268341064,0.3148244321346283,-2.1512367725372314,30.42242236328125
1765999893003277000,33.13327709960937,-1.2860230207443235,0.081015944480896,-2.465373992919922,30.441201904296875
1765999893022056200,33.15205615234375,-1.095891356468201,0.1804341822862625,-2.7520222663879395,30.45998095703125
1765999893040835600,33.17083569335937,-1.161406636238098,0.3452149629592895,-3.02996563911438,30.478760498046874
