time,seconds_elapsed,z,y,x,t
1765999864590229800,4.720229736328125,-6.70928430557251,-2.0017733573913574,1.6242003440856934,2.0469340820312505
1765999864609009000,4.7390087890625,-4.462803840637207,-3.6230368614196777,-4.252809524536133,2.065713134765625
1765999864627788000,4.7577880859375,-2.6520862579345703,5.9049072265625,0.2002115100622177,2.0844924316406255
1765999864646567200,4.776567138671875,-0.0246670246124267,1.5591163635253906,4.201395511627197,2.103271484375
1765999864665346600,4.7953466796875,-0.6371360421180725,-1.709029197692871,-0.5898641347885132,2.1220510253906255
1765999864684125700,4.814125732421875,-0.5941508412361145,1.4242210388183594,-1.6712841987609863,2.140830078125
1765999864702904800,4.83290478515625,-1.3320690393447876,0.4528207778930664,-0.979513943195343,2.1596091308593754
1765999864721684200,4.851684326171875,-2.146681785583496,-1.2516813278198242,-0.6103506088256836,2.178388671875
1765999864740463400,4.87046337890625,-2.370214939117432,-1.6338396072387695,0.0634024441242218,2.1971677246093755
1765999864759242500,4.889242431640625,-2.420785903930664,-1.795231819152832,1.369499921798706,2.21594677734375
1765999864778022000,4.90802197265625,-3.140709638595581,-1.781963348388672,2.190063714981079,2.2347263183593755
1765999864796801000,4.926801025390625,-3.398672580718994,-2.1927123069763184,1.3548574447631836,2.25350537109375
1765999864815580200,4.945580078125,-3.2629520893096924,-2.80526065826416,0.0917839705944061,2.2722844238281255
1765999864834359300,4.964359375,-3.199411153793335,-3.4214091300964355,-1.1068285703659058,2.291063720703125
1765999864853138700,4.983138671875,-3.072875499725342,-3.812900066375733,-1.4665192365646362,2.3098430175781255
1765999864871917800,5.001917724609375,-2.880338430404663,-4.093779563903809,-0.8968614935874939,2.3286220703125
1765999864890697000,5.020697021484375,-3.000382900238037,-4.116714000701904,-0.1951842308044433,2.3474013671875005
1765999864909476400,5.039476318359375,-3.0921664237976074,-4.077486515045166,0.228560209274292,2.3661806640625
1765999864928255500,5.05825537109375,-3.0629777908325195,-4.153088569641113,0.2764273285865783,2.3849597167968755
1765999864956424200,5.086424072265625,-2.782820224761963,-4.261215686798096,-0.2365099191665649,2.4131284179687498
1765999864975203600,5.10520361328125,-2.6412792205810547,-3.798908710479736,-0.6285898685455322,2.4319079589843753
1765999864993982700,5.123982666015625,-2.5564582347869877,-3.0004358291625977,-0.8563585877418518,2.45068701171875
1765999865012761900,5.142761962890625,-2.413946390151977,-2.151731491088867,-1.0731152296066284,2.4694663085937503
1765999865031541200,5.161541259765625,-2.179616689682007,-1.490687370300293,-0.963678538799286,2.48824560546875
1765999865050320400,5.1803203125,-2.2722012996673584,-1.2996821403503418,-0.6068654656410217,2.5070246582031253
1765999865069099500,5.199099609375,-2.158463478088379,-1.1751089096069336,-0.4633208513259887,2.525803955078125
1765999865087878700,5.217878662109375,-1.967458248138428,-1.0036392211914062,-0.465938925743103,2.5445830078125002
1765999865106658000,5.236657958984375,-1.9481182098388672,-0.6349406242370605,-0.3564449548721313,2.5633623046875
1765999865125437200,5.255437255859375,-1.9590296745300293,0.063298225402832,-0.4581416845321655,2.5821416015625003
1765999865144216300,5.27421630859375,-1.6558022499084473,1.0987920761108398,-0.512975811958313,2.600920654296875
1765999865162995700,5.29299560546875,-1.4424405097961426,1.792217254638672,-0.92312490940094,2.6196999511718753
1765999865191164400,5.321164306640625,-1.0426177978515625,1.257709503173828,-0.5288374423980713,2.6478686523437505
1765999865209943600,5.339943603515625,-0.8044495582580566,0.7963228225708008,0.2246443033218383,2.66664794921875
1765999865228723000,5.358722900390625,-0.7806949615478516,0.5745463371276855,1.1404945850372314,2.6854272460937505
1765999865247502000,5.377502197265625,-0.2836503982543945,1.257615566253662,2.005344867706299,2.70420654296875
1765999865275671000,5.405671142578125,0.6921849250793457,4.023993492126465,1.588809370994568,2.7323754882812503
1765999865294450200,5.4244501953125,1.210059642791748,4.2186279296875,0.3914404511451721,2.751154541015625
1765999865313229300,5.443229248046875,1.6466984748840332,3.471010208129883,-0.2267960309982299,2.7699335937500003
1765999865332008700,5.4620087890625,1.9520654678344729,2.896855354309082,-0.3769621253013611,2.788713134765625
1765999865350787800,5.480787841796875,1.9386935234069824,2.4316139221191406,0.2803529500961303,2.8074921875000003
1765999865369567000,5.49956689453125,2.0435025691986084,2.256209373474121,1.597834587097168,2.826271240234375
1765999865397736000,5.52773583984375,1.973546028137207,2.7878975868225098,2.370593309402466,2.854440185546875
1765999865416515000,5.54651513671875,1.9204139709472656,2.946786403656006,1.53849458694458,2.8732194824218755
1765999865435294200,5.565294189453125,2.523902416229248,3.170121192932129,0.6916490793228149,2.89199853515625
1765999865454073600,5.584073486328125,2.7433090209960938,3.4295759201049805,-0.4312791526317596,2.9107778320312505
1765999865472852700,5.602852783203125,2.8353188037872314,3.4240565299987797,-1.328101634979248,2.92955712890625
1765999865491631900,5.6216318359375,2.6908082962036133,3.329047203063965,-1.9348397254943848,2.9483361816406255
1765999865510411300,5.640411376953125,2.56410551071167,3.072322368621826,-1.680044651031494,2.96711572265625
1765999865529190400,5.6591904296875,2.194708824157715,2.646430969238281,-1.0188747644424438,2.9858947753906255
1765999865547969500,5.677969482421875,1.9659676551818848,2.3100366592407227,-0.5939627289772034,3.004673828125
1765999865566749000,5.6967490234375,1.7987380027770996,2.068671703338623,-0.2925597429275512,3.0234533691406247
1765999865604307200,5.73430712890625,1.7490191459655762,2.18842887878418,0.2357958555221557,3.0610114746093755
1765999865623086300,5.75308642578125,1.6910104751586914,2.531081199645996,0.1859736442565918,3.079790771484375
1765999865641865700,5.77186572265625,1.8101568222045896,2.430193424224853,0.0530323982238769,3.0985700683593755
1765999865660644900,5.790644775390625,1.630171298980713,1.7989511489868164,0.1301755905151367,3.11734912109375
1765999865679424000,5.809424072265625,1.5293612480163574,1.0964126586914062,0.1842668056488037,3.1361284179687505
1765999865698203400,5.828203369140625,1.3018336296081543,0.8048238754272461,0.5336079597473145,3.15490771484375
1765999865716982500,5.846982421875,0.3227505683898926,0.9506521224975586,0.5871042013168335,3.1736867675781255
1765999865735761700,5.86576171875,-0.0829119682312011,1.0032424926757812,-0.0579724311828613,3.192466064453125
1765999865754541000,5.884541015625,-0.1522769927978515,0.6042346954345703,-0.3410801887512207,3.2112453613281255
1765999865773320200,5.9033203125,-0.0940485000610351,0.233464241027832,-0.1190487146377563,3.230024658203125
1765999865792099300,5.922099365234375,-0.2945866584777832,0.1872520446777343,0.3736426830291748,3.2488037109375005
1765999865810878700,5.940878662109375,-1.021726369857788,0.3615560531616211,1.0270215272903442,3.2675830078125
1765999865839047400,5.96904736328125,-2.3518967628479004,0.485177993774414,2.4647481441497803,3.2957517089843753
1765999865857826600,5.98782666015625,-3.2813525199890137,0.6047735214233398,3.31186318397522,3.314531005859375
1765999865876606000,6.00660595703125,-3.394996166229248,1.0883827209472656,3.441139936447144,3.3333103027343753
1765999865895385000,6.025385009765625,-4.809755325317383,-1.303359031677246,2.062215805053711,3.35208935546875
1765999865914164200,6.044164306640625,-3.458967447280884,-0.2964925765991211,-9.198784828186035,3.3708686523437503
1765999865932943600,6.062943603515625,-0.5024933815002441,4.218979835510254,-6.456777572631836,3.38964794921875
1765999865951722800,6.08172265625,0.4077299833297729,-1.7906627655029297,3.644212007522583,3.4084270019531253
1765999865970502000,6.100501953125,-0.9928174018859864,-0.3192310333251953,2.321323871612549,3.427206298828125
1765999865989281300,6.11928125,-1.9090183973312376,1.2923555374145508,1.8160316944122317,3.4459855957031253
1765999866008060400,6.138060302734375,-2.71644926071167,-2.1494297981262207,-0.6427579522132874,3.4647646484375
1765999866026839800,6.15683984375,-3.2317299842834477,-3.61681079864502,-3.144238948822021,3.4835441894531254
1765999866045619000,6.175618896484375,-3.2206544876098637,-3.5830883979797363,-1.9901177883148196,3.5023232421875
1765999866064398000,6.194398193359375,-3.8964552879333496,-3.703846454620361,0.7103762626647949,3.5211025390625004
1765999866083177200,6.21317724609375,-4.340854167938232,-4.132218360900879,1.5370962619781494,3.539881591796875
1765999866101956600,6.23195654296875,-4.622137069702148,-4.66401481628418,0.7902145385742188,3.5586608886718754
1765999866120735700,6.25073583984375,-4.445996284484863,-5.065526008605957,-0.1873429417610168,3.577440185546875
1765999866139515000,6.269514892578125,-4.104162216186523,-5.169623374938965,-0.7546353340148926,3.5962192382812503
1765999866158294300,6.288294189453125,-3.750809192657471,-4.832939147949219,-0.7874130606651306,3.61499853515625
1765999866177073400,6.307073486328125,-3.48532509803772,-4.311179637908936,-0.4325350821018219,3.6337778320312504
1765999866195852500,6.3258525390625,-3.501809597015381,-3.3837385177612305,-0.0367593169212341,3.652556884765625
1765999866214632000,6.3446318359375,-3.477291822433472,-2.1529364585876465,-0.0948675870895385,3.6713361816406254
1765999866233411000,6.3634111328125,-3.2636983394622803,-1.0924758911132812,-0.6344196796417236,3.690115478515625
1765999866252190200,6.382190185546875,-2.688612222671509,-0.1352138519287109,-1.3186171054840088,3.7088945312500003
1765999866270969600,6.400969482421875,-2.148932456970215,1.0376367568969729,-1.879366636276245,3.727673828125
1765999866289748700,6.419748779296875,-1.698406219482422,1.975301742553711,-2.135113477706909,3.7464531250000004
1765999866308527900,6.43852783203125,-1.3078618049621582,2.3980674743652344,-2.018404245376587,3.765232177734375
1765999866327307300,6.457307373046875,-0.969247341156006,2.387378692626953,-1.5324214696884155,3.7840117187500004
1765999866346086400,6.47608642578125,-0.7138824462890625,1.933245658874512,-0.7737833857536316,3.802790771484375
1765999866364865800,6.49486572265625,-0.7141585350036621,1.2260208129882812,0.0289080142974853,3.8215700683593754
1765999866383645000,6.51364501953125,-0.2433052062988281,0.7080059051513672,0.784928023815155,3.840349365234375
1765999866402424000,6.532424072265625,0.0974874496459961,0.3674440383911133,2.120615005493164,3.8591284179687504
1765999866421203500,6.551203369140625,-0.0886955261230468,0.0864849090576171,2.9752628803253174,3.87790771484375
1765999866439982600,6.569982666015625,0.3166861534118652,1.2538089752197266,4.50736665725708,3.8966870117187504
1765999866458761700,6.58876171875,1.16479754447937,2.698789596557617,4.813237190246582,3.915466064453125
1765999866486930700,6.6169306640625,3.829439163208008,6.14030647277832,2.2864699363708496,3.943635009765625
1765999866505709800,6.635709716796875,5.31844425201416,5.587246894836426,0.4208797812461853,3.9624140624999997
1765999866524489000,6.654489013671875,4.280483245849609,3.757259368896485,-2.206611633300781,3.981193359375
1765999866552658000,6.682657958984375,0.1090157032012939,0.9843435287475586,-1.6971466541290283,4.0093623046875
1765999866571437000,6.70143701171875,-1.1785013675689695,1.4711084365844729,1.4053672552108765,4.028141357421875
1765999866590216400,6.720216552734375,-0.3477129936218261,0.5462884902954102,2.795769691467285,4.0469208984375005
1765999866608995600,6.73899560546875,1.0182092189788818,-1.0899667739868164,-0.128265768289566,4.065699951171875
1765999866627774700,6.757774658203125,1.954803705215454,-1.168853759765625,-3.717804431915283,4.08447900390625
1765999866646554000,6.77655419921875,3.08639931678772,0.0025463104248046,-3.9299585819244394,4.103258544921875
1765999866665333200,6.795333251953125,3.5812716484069824,1.1365060806274414,-2.351926803588867,4.12203759765625
