time,seconds_elapsed,z,y,x,t
1765999894073698000,34.20369799804688,-0.4608974754810333,0.093691386282444,-0.2164752036333084,31.51162280273438
1765999894092477400,34.2224775390625,-0.4272999167442322,0.2438113987445831,-0.226859912276268,31.530402343750005
1765999894111256800,34.2412568359375,-0.4253146052360534,0.1961639523506164,-0.2186132371425628,31.549181640625
1765999894130036200,34.2600361328125,-0.4479165971279144,0.0347429327666759,-0.2230419963598251,31.567960937500004
1765999894148815400,34.2788154296875,-0.4934260249137878,-0.0912479236721992,-0.2538906633853912,31.586740234375
1765999894167594800,34.2975947265625,-0.4999928176403045,-0.1366046369075775,-0.284586638212204,31.605519531250003
1765999894186374100,34.3163740234375,-0.4595230221748352,-0.2751182317733764,-0.2738964855670929,31.624298828125
1765999894205153300,34.3351533203125,-0.4372264742851257,-0.5883391499519348,-0.2913061380386352,31.643078125000002
1765999894223932700,34.3539326171875,-0.4416552484035492,-0.9059888124465942,-0.2984837889671325,31.661857421875006
1765999894242712000,34.37271215820312,-0.4251618981361389,-1.025412917137146,-0.3226129710674286,31.680636962890624
1765999894261491500,34.391491455078125,-0.4158461987972259,-0.9892191290855408,-0.3423133492469787,31.699416259765627
1765999894280270600,34.4102705078125,-0.3460549116134643,-1.0165553092956543,-0.3249036967754364,31.7181953125
1765999894299050000,34.429050048828124,-0.2336557805538177,-0.9165262579917908,-0.2639699280261993,31.736974853515626
1765999894317829400,34.44782934570313,-0.1447749584913253,-0.8294780254364014,-0.1505018174648285,31.75575415039063
1765999894336608800,34.46660888671875,-0.0175623632967472,-0.8809433579444885,0.0138208158314228,31.774533691406255
1765999894355388000,34.485387939453126,0.1553123742341995,-1.242422580718994,0.1795178800821304,31.79331274414063
1765999894383556900,34.51355688476563,0.9836450219154358,-2.650160551071167,0.7147881388664246,31.82148168945313
1765999894402336300,34.53233618164062,1.380554437637329,-3.3920557498931885,1.2205841541290283,31.840260986328126
1765999894421115600,34.55111572265625,1.4453060626983645,-3.114570379257202,1.6607122421264648,31.85904052734375
1765999894449284600,34.57928466796875,1.1962260007858276,-0.963257372379303,2.1761293411254883,31.887209472656252
1765999894468064000,34.59806396484375,0.8214604258537292,0.8722385764122009,2.36015248298645,31.905988769531255
1765999894486843100,34.61684301757813,0.7661771774291992,2.211254119873047,2.4050509929656982,31.92476782226563
1765999894505622500,34.63562255859375,0.8135191798210144,2.561432361602783,2.356487274169922,31.943547363281255
1765999894524402000,34.65440185546875,0.8869756460189819,2.06495213508606,2.0844995975494385,31.96232666015625
1765999894543181300,34.673181396484374,1.083979606628418,1.074129343032837,1.6410118341445925,31.981106201171876
1765999894561960400,34.69196044921875,1.2982404232025146,-0.5281689763069153,1.0228166580200195,31.99988525390625
1765999894580739800,34.71073974609375,1.2576178312301636,-2.158719778060913,0.2897789776325226,32.01866455078125
1765999894599519200,34.729519287109376,1.083826780319214,-3.02523136138916,-0.6556869745254517,32.03744409179688
1765999894618298600,34.74829858398437,0.8451313972473145,-3.094259262084961,-1.6830087900161743,32.056223388671874
1765999894637077800,34.767077880859375,0.5671879649162292,-2.374049663543701,-2.755534648895264,32.07500268554688
1765999894655857200,34.78585717773438,0.2452622056007385,-1.5206714868545532,-3.768653869628906,32.09378198242188
1765999894674636500,34.804636474609374,-0.282372236251831,-2.057621717453003,-2.9232170581817627,32.11256127929688
1765999894693416000,34.823416015625,-0.5097666382789612,0.5481747984886169,-3.90976357460022,32.1313408203125
1765999894712195000,34.84219506835937,0.736244797706604,-1.3085486888885498,-4.317974090576172,32.150119873046876
1765999894730974500,34.86097436523438,1.304807186126709,-1.7091232538223269,-3.7213118076324463,32.16889916992188
1765999894749753900,34.87975390625,0.9518800377845764,-3.2028403282165527,-2.801502227783203,32.187678710937504
1765999894768533200,34.898533203125,1.0919208526611328,-3.810650825500488,-1.7922009229660034,32.2064580078125
1765999894787312400,34.9173125,1.1311688423156738,-1.7080543041229248,-0.9098067283630372,32.225237304687504
1765999894806091800,34.936091796875,0.7990111112594604,0.6931024789810181,-0.0956766977906227,32.2440166015625
1765999894834260700,34.9642607421875,0.4543306827545166,3.540954113006592,0.8708640933036804,32.272185546875
1765999894853040000,34.9830400390625,0.2684750556945801,4.262843608856201,1.3251948356628418,32.290964843750004
1765999894871819500,35.00181958007813,0.1304196268320083,4.095008373260498,1.6689589023590088,32.30974438476563
1765999894890599000,35.02059887695312,0.1036942973732948,3.2969136238098145,1.9217042922973635,32.328523681640625
1765999894909378000,35.0393779296875,0.1003345400094986,2.3215153217315674,2.1426844596862797,32.347302734375
1765999894928157400,35.05815747070312,0.0058032153174281,1.7040836811065674,2.3196825981140137,32.366082275390625
1765999894946936800,35.076936767578125,-0.1464548259973526,1.5553381443023682,2.437732219696045,32.38486157226563
1765999894975105800,35.10510571289063,-0.3594939112663269,1.8285473585128784,2.558377981185913,32.41303051757813
1765999894993885000,35.12388500976562,-0.4918988645076751,2.1428372859954834,2.585103273391724,32.431809814453125
1765999895012664300,35.142664306640626,-0.5671879649162292,2.404592752456665,2.531805515289306,32.45058911132813
1765999895031443700,35.16144360351562,-0.5090031027793884,2.372522354125977,2.421391725540161,32.469368408203124
1765999895050223000,35.18022314453125,-0.3979783952236175,2.0530402660369877,2.3027310371398926,32.48814794921875
1765999895069002500,35.19900244140625,-0.3287979662418365,1.5386919975280762,2.161010503768921,32.50692724609375
1765999895087781600,35.21778173828125,-0.3034470677375793,0.8647554516792297,2.00478196144104,32.525706542968756
1765999895106561000,35.23656103515625,-0.3272708058357239,0.3904189467430115,1.758450627326965,32.54448583984375
1765999895134730000,35.26472998046875,-0.6180424690246582,0.1482110619544983,1.326111078262329,32.57265478515625
1765999895153509400,35.28350927734375,-0.9107993841171264,0.303370714187622,1.0078505277633667,32.59143408203125
1765999895172288800,35.30228881835937,-1.0696241855621338,0.9131664633750916,0.3720930218696594,32.610213623046874
1765999895191068000,35.32106787109375,-1.5654937028884888,3.4335944652557373,-1.0762673616409302,32.628992675781255
1765999895209847300,35.33984741210938,-1.5308271646499634,4.703124523162842,-1.426598310470581,32.64777221679688
1765999895228626700,35.358626708984374,-0.7936660647392273,3.114417791366577,-1.698891282081604,32.66655151367188
1765999895247406000,35.37740600585938,-0.3825540542602539,0.0344375036656856,-1.077489137649536,32.68533081054688
1765999895266185500,35.396185546875,0.0016798780998215,-1.8995603322982788,-0.238771766424179,32.704110351562505
1765999895284964600,35.41496459960938,0.1860083192586898,-2.3743550777435303,-0.0684932097792625,32.72288940429688
1765999895303744000,35.43374389648437,0.1971566081047058,-1.9777511358261108,-0.093691386282444,32.741668701171875
1765999895322523400,35.4525234375,0.0291687939316034,-1.609705090522766,-0.215253472328186,32.7604482421875
1765999895341302800,35.471302734375,0.1075121983885765,-1.19156813621521,-0.3064250349998474,32.779227539062504
1765999895369471700,35.4994716796875,-0.1365282833576202,-0.0078648841008543,-0.3030652999877929,32.807396484375005
1765999895388251000,35.5182509765625,-0.2918406426906585,0.648967444896698,-0.271147608757019,32.82617578125
1765999895407030300,35.5370302734375,-0.3338375985622406,0.9699769020080566,-0.236022874712944,32.844955078125004
1765999895425809700,35.5558095703125,-0.2701549530029297,0.8203150629997253,-0.1592066287994384,32.863734375
1765999895444589000,35.57458911132812,-0.2157879769802093,0.3989710509777069,-0.0782670527696609,32.882513916015625
1765999895463368400,35.593368408203126,-0.1925751268863678,0.0475710928440094,0.0103083429858088,32.90129321289063
1765999895482147600,35.61214770507812,-0.1777616441249847,-0.0509308502078056,0.0784197673201561,32.920072509765625
1765999895500927000,35.630927001953125,-0.1776089370250702,0.1004109010100364,0.1043815165758133,32.93885180664063
1765999895519706400,35.64970629882812,-0.1820377111434936,0.2957349121570587,0.0910952091217041,32.957631103515624
1765999895538485500,35.668485595703125,-0.1592829972505569,0.3791179656982422,0.0616209842264652,32.97641040039063
1765999895557265000,35.68726489257813,-0.129656046628952,0.3788125216960907,0.0431423261761665,32.99518969726563
1765999895576044300,35.706044189453124,-0.0983492285013198,0.2841284871101379,0.051083568483591,33.013968994140626
1765999895594823700,35.72482373046875,-0.065515249967575,0.0988837331533432,0.1088102906942367,33.03274853515625
1765999895613603000,35.74360302734375,0.0027488914784044,-0.0822376683354377,0.1941786408424377,33.051527832031255
1765999895632382200,35.76238232421875,0.1696676909923553,-0.4852557182312011,0.3015381395816803,33.07030712890625
1765999895651161600,35.78116162109375,0.4633409380912781,-0.7874810695648193,0.4843394160270691,33.089086425781254
1765999895669941000,35.79994091796875,0.6769908666610718,-0.7946587204933167,0.6428588032722473,33.10786572265625
1765999895688720400,35.81872045898437,0.924849271774292,-1.080390691757202,0.8091667294502258,33.126645263671875
1765999895707499500,35.83749951171875,1.1160500049591064,-1.3496294021606443,0.9182060956954956,33.14542431640625
1765999895726279000,35.85627880859375,1.1760674715042114,-1.4408009052276611,0.90415620803833,33.16420361328125
1765999895745058300,35.875058349609375,1.1597267389297483,-1.5916845798492432,0.6434696912765503,33.18298315429688
1765999895773227300,35.90322729492188,1.326951026916504,-2.0950372219085693,-0.271147608757019,33.21115209960938
1765999895792006700,35.92200659179687,1.377805471420288,-2.708803415298462,-1.0588576793670654,33.229931396484375
1765999895810786000,35.9407861328125,1.106123447418213,-3.4595563411712646,-1.782121658325195,33.2487109375
1765999895829565400,35.9595654296875,0.736244797706604,-4.051026344299316,-2.446131706237793,33.267490234375
1765999895848344600,35.978344482421875,0.7118101716041565,-4.27429723739624,-2.985372543334961,33.28626928710938
1765999895867124000,35.9971240234375,0.9153808951377868,-3.826380729675293,-3.3254714012146,33.305048828125
1765999895885903400,36.0159033203125,0.9037744402885436,-3.555309295654297,-2.591517448425293,33.323828125000006
1765999895904682500,36.0346826171875,0.1408043354749679,-1.7473022937774658,-1.5926008224487305,33.342607421875
1765999895923462000,36.0534619140625,0.4190532267093658,0.5606974959373474,-2.2631776332855225,33.361386718750005
1765999895942241300,36.0722412109375,0.8161153197288513,0.4725802540779114,-2.036241292953491,33.380166015625
1765999895961020700,36.09102075195312,0.2843575477600097,0.8775836229324341,-1.6933934688568115,33.39894555664062
1765999895979800000,36.10980004882813,0.0891862586140632,0.9501237869262696,-1.304730772972107,33.41772485351563
1765999895998579200,36.1285791015625,0.1325576603412628,0.5426769852638245,-0.8410844206809998,33.43650390625
1765999896017358600,36.147358642578126,0.1154534444212913,0.6112465858459473,-0.3337612450122833,33.45528344726563
1765999896036138000,36.16613793945312,0.0555886961519718,1.0093777179718018,0.2714530229568481,33.474062744140625
1765999896054917000,36.184917236328126,-0.0041233371011912,1.6158137321472168,0.8404735922813416,33.49284204101563
1765999896073696500,36.20369653320312,-0.073151059448719,2.12955093383789,1.2473095655441284,33.511621337890624
1765999896092476000,36.222475830078125,-0.1108719557523727,2.3980259895324707,1.539302945137024,33.53040063476563
1765999896111255300,36.24125537109375,-0.1284343153238296,2.346407890319824,1.7886884212493896,33.54918017578125
1765999896130034700,36.26003466796875,-0.146302118897438,2.1460442543029785,1.977445602416992,33.567959472656256
