time,seconds_elapsed,z,y,x,t
1765999888871829500,29.00182958984375,0.119729496538639,-1.5023455619812012,-2.8755695819854736,26.30975439453125
1765999888890609000,29.02060888671875,-0.0826194584369659,-1.768988013267517,-2.098396778106689,26.32853369140625
1765999888909388300,29.03938818359375,0.0705548822879791,-0.1427132785320282,-2.5812854766845703,26.34731298828125
1765999888937557200,29.06755712890625,0.5513054728507996,-0.2024253159761428,-2.3977205753326416,26.37548193359375
1765999888956336400,29.08633642578125,0.2799287736415863,0.000992655288428,-2.136423110961914,26.39426123046875
1765999888975115800,29.10511572265625,0.1449276655912399,-0.0077121676877141,-1.7517311573028564,26.41304052734375
1765999889003284700,29.13328466796875,0.4045451879501343,-0.2117410004138946,-0.9493602514266968,26.441209472656247
1765999889022064000,29.15206420898437,0.4060723483562469,0.0023671009112149,-0.3737728893756866,26.45998901367187
1765999889040843300,29.17084326171875,0.4344775676727295,0.4907535016536712,0.2815323173999786,26.47876806640625
1765999889059622700,29.18962255859375,0.4889972507953644,1.1770601272583008,0.8635337352752686,26.49754736328125
1765999889078402000,29.208402099609376,0.5276344418525696,1.8070143461227417,1.2880847454071045,26.516326904296875
1765999889097181200,29.22718115234375,0.5543597936630249,2.0730459690093994,1.6084833145141602,26.53510595703125
1765999889115960600,29.245960693359372,0.5676460862159729,1.988593935966492,1.867031812667847,26.55388549804687
1765999889134739700,29.26473974609375,0.5170970559120178,1.7146210670471191,2.1063380241394043,26.572664550781248
1765999889153519000,29.28351904296875,0.3845393657684326,1.4693589210510254,2.342284679412842,26.591443847656247
1765999889172298500,29.30229858398437,0.2218966335058212,1.3728421926498413,2.5654029846191406,26.61022338867187
1765999889191077600,29.32107763671875,0.0621554926037788,1.409799575805664,2.7460663318634038,26.62900244140625
1765999889209857000,29.33985693359375,-0.0704021677374839,1.5477023124694824,2.846095323562622,26.64778173828125
1765999889228636400,29.358636474609376,-0.1623373180627823,1.6520074605941772,2.8606033325195312,26.666561279296875
1765999889247415600,29.37741552734375,-0.2264781147241592,1.703320026397705,2.7883687019348145,26.68534033203125
1765999889266195000,29.39619482421875,-0.2643517255783081,1.5953497886657717,2.6599342823028564,26.70411962890625
1765999889284974300,29.41497436523437,-0.2504545450210571,1.223791241645813,2.510883331298828,26.72289916992187
1765999889303753500,29.43375341796875,-0.189673513174057,0.8261182308197021,2.3158648014068604,26.741678222656247
1765999889322532900,29.45253295898437,-0.1214093714952468,0.663780927658081,2.028147459030152,26.76045776367187
1765999889341312300,29.47131225585937,-0.12553271651268,0.3891972303390503,1.6898810863494873,26.77923706054687
1765999889360091400,29.49009130859375,-0.2440404742956161,0.0145843969658017,1.338175654411316,26.79801611328125
1765999889378870800,29.508870849609377,-0.411570131778717,-0.3525453209877014,0.984332263469696,26.816795654296875
1765999889397650200,29.527650146484376,-0.5027416944503784,-0.4563923478126526,0.6431642770767212,26.835574951171875
1765999889416429300,29.54642919921875,-0.7240274548530579,0.9264528155326844,-0.5782598853111267,26.85435400390625
1765999889435208700,29.56520874023437,-0.9622647166252136,1.6883538961410522,-1.1801143884658811,26.87313354492187
1765999889453988000,29.58398803710937,-0.6701186895370483,1.886274099349976,-1.3656646013259888,26.89191284179687
1765999889472767200,29.60276733398437,0.1550069451332092,0.6735547780990601,-1.506163477897644,26.91069213867187
1765999889500936200,29.63093627929688,0.0992655232548713,-1.1787399053573608,-1.0571779012680054,26.938861083984378
1765999889519715600,29.649715576171875,-0.1568395346403122,-1.4965423345565796,-0.8183297514915466,26.957640380859374
1765999889538495000,29.668494873046875,-0.2657261788845062,-1.097036838531494,-0.7309760451316833,26.976419677734373
1765999889557274000,29.687274169921874,-0.1908952444791793,-0.3820195496082306,-0.7677806615829468,26.995198974609373
1765999889576053500,29.706053466796877,0.0048869182355701,-0.0381026901304721,-0.8365029692649841,27.013978271484376
1765999889594833000,29.7248330078125,-0.0334448479115963,-0.0310777463018894,-0.8551343083381653,27.032757812499998
1765999889613612000,29.74361206054688,-0.1766926348209381,-0.1036179363727569,-0.8332959413528442,27.05153686523438
1765999889632391400,29.76239135742188,-0.2631300091743469,-0.1107956022024154,-0.8459713459014893,27.07031616210938
1765999889651170800,29.7811708984375,-0.2739728391170501,0.0472656637430191,-0.8566614985466003,27.089095703125
1765999889669950000,29.799949951171875,-0.2492328286170959,0.2807687222957611,-0.8281035423278809,27.107874755859374
1765999889688729300,29.818729248046875,-0.2655734717845917,0.4105774760246277,-0.7862593531608582,27.126654052734374
1765999889707508500,29.837508544921874,-0.2866483032703399,0.3300960659980774,-0.7499128580093384,27.145433349609373
1765999889735677400,29.865677490234376,-0.2444986253976822,0.2444222718477249,-0.7242565751075745,27.173602294921874
1765999889754456800,29.88445678710937,-0.2331976294517517,0.1692859083414077,-0.6729438900947571,27.19238159179687
1765999889773236200,29.903236328125,-0.2425133138895034,0.192193329334259,-0.6081922650337219,27.2111611328125
1765999889792015400,29.92201538085937,-0.2426660358905792,0.2737437784671783,-0.5246564745903015,27.22994018554687
1765999889810794800,29.94079467773437,-0.2165515571832656,0.2847393453121185,-0.4241692423820495,27.24871948242187
1765999889829574100,29.95957421875,-0.1681405305862426,0.21479532122612,-0.3194059133529663,27.267499023437498
1765999889848353300,29.978353271484377,-0.1149952933192253,0.0846811309456825,-0.2097556889057159,27.286278076171875
1765999889867132700,29.997132568359376,-0.0632245019078254,-0.033673919737339,-0.1239291951060295,27.305057373046875
1765999889895301600,30.025301513671877,-0.0597120337188243,-0.0164169911295175,-0.0266489759087562,27.333226318359376
1765999889914081000,30.0440810546875,-0.075899951159954,0.0458912178874015,-0.0043524117209017,27.352005859374998
1765999889932860200,30.06286010742188,-0.086284652352333,0.0481819584965705,0.0101556265726685,27.37078491210938
1765999889951639600,30.0816396484375,-0.0734564885497093,-0.0775034725666046,0.0142789641395211,27.389564453124997
1765999889970419000,30.1004189453125,-0.0621554926037788,-0.2401462197303772,0.017791436985135,27.40834375
1765999889989198300,30.1191982421875,-0.0569631420075893,-0.3273471593856811,0.0242055170238018,27.427123046875
1765999890007977500,30.1379775390625,-0.0774271115660667,-0.3688859641551971,0.0138208158314228,27.44590234375
1765999890026756900,30.1567568359375,-0.0791069865226745,-0.4285979866981506,0.0089338971301913,27.464681640625
1765999890045536000,30.175535888671877,-0.0459675751626491,-0.5603920817375183,0.0162642747163772,27.483460693359376
1765999890064315400,30.1943154296875,-0.0167987812310457,-0.7549524903297424,0.0362700968980789,27.502240234374998
1765999890083094800,30.2130947265625,0.0135917412117123,-0.8371137976646423,0.0710893869400024,27.521019531249998
1765999890101874000,30.2318740234375,0.0490218997001647,-0.7938951253890991,0.1124754771590232,27.539798828124997
1765999890120653300,30.2506533203125,0.1020144149661064,-0.6619483232498169,0.1932623386383056,27.558578125
1765999890139432700,30.2694326171875,0.1809686869382858,-0.5385536551475525,0.3087157905101776,27.577357421875
1765999890158211800,30.2882119140625,0.3043633699417114,-0.4340957701206207,0.4435641765594482,27.59613671875
1765999890176991200,30.3069912109375,0.4437932670116424,-0.3139081299304962,0.6007091403007507,27.614916015625
1765999890195770600,30.3257705078125,0.6218603253364563,-0.2832121849060058,0.7853430509567261,27.6336953125
1765999890214549800,30.3445498046875,0.8495602011680603,-0.4646390080451965,0.9102649092674256,27.652474609375
1765999890233329200,30.3633291015625,1.0105230808258057,-0.6992111206054688,0.9792925715446472,27.671253906249998
1765999890252108500,30.382108642578125,1.0787872076034546,-0.9128610491752625,1.0362557172775269,27.690033447265623
1765999890270887700,30.4008876953125,1.0891718864440918,-1.1204023361206057,1.0577887296676636,27.708812499999997
1765999890289667000,30.4196669921875,0.9008728265762328,-1.1118502616882324,1.038546442985535,27.727591796875
1765999890308446500,30.438446533203123,0.6873756051063538,-1.1417826414108276,1.1080323457717896,27.746371337890622
1765999890355394600,30.48539453125,0.3802633285522461,-1.0080032348632812,1.5353323221206665,27.7933193359375
1765999890383563500,30.5135634765625,-0.4021017551422119,-0.7540361881256104,1.4440079927444458,27.821488281249998
1765999890402343000,30.532343017578125,-0.8498656153678894,-0.8574250936508179,1.1685079336166382,27.840267822265623
1765999890421122300,30.551122314453124,-1.1502584218978882,-1.052290916442871,0.8158862590789795,27.859047119140623
1765999890439901400,30.5699013671875,-1.3854413032531738,-1.3432153463363647,0.4525744318962097,27.877826171875
1765999890458680800,30.588680908203123,-1.640019178390503,-1.8390847444534304,-0.0342847853899002,27.896605712890622
1765999890477460200,30.607460205078127,-1.839619278907776,-2.007072687149048,-0.752203643321991,27.915385009765625
1765999890496239400,30.6262392578125,-2.1815507411956787,-1.7720423936843872,-1.5330414772033691,27.9341640625
1765999890515018800,30.64501879882813,-2.709490776062012,-1.624976634979248,-2.214919328689575,27.952943603515628
1765999890533798100,30.663798095703125,-3.110065221786499,-1.8484004735946653,-2.984914302825928,27.971722900390624
1765999890552577300,30.682577392578125,-3.0295839309692383,-1.2288308143615725,-4.016664981842041,27.990502197265624
1765999890571356700,30.701356689453124,-2.632216453552246,0.211130142211914,-4.410367488861084,28.009281494140623
1765999890599525600,30.729525634765626,-2.2145376205444336,3.2237625122070312,-3.9963536262512207,28.037450439453124
1765999890618305000,30.748304931640625,-0.8941532969474792,4.842706680297852,-3.880136728286743,28.056229736328124
1765999890637084200,30.767084228515625,-0.0702494531869888,2.8357107639312744,-3.552255153656006,28.075009033203123
1765999890655863600,30.785863525390624,-0.5219839811325073,1.172325849533081,-3.0901358127593994,28.093788330078123
1765999890674642700,30.804642578125,0.5410735011100769,-0.6753873825073242,-2.558530807495117,28.1125673828125
1765999890693422000,30.823422119140623,1.4175117015838623,-2.156276226043701,-2.060370445251465,28.131346923828122
1765999890712201500,30.842201416015627,1.7008002996444702,-2.163148641586304,-1.6016111373901367,28.150126220703125
1765999890730980600,30.860980712890623,1.9428554773330688,-1.7053053379058838,-0.9886083006858826,28.16890551757812
1765999890749760000,30.879760009765626,1.952934741973877,-1.239673733711243,-0.3899607956409454,28.187684814453124
1765999890768539400,30.898539306640625,1.8894047737121584,-0.4145480990409851,0.1854738146066665,28.206464111328124
1765999890787318500,30.917318603515625,1.6774346828460691,0.4476875364780426,0.6584358811378479,28.225243408203124
1765999890806098000,30.936097900390624,1.4407246112823486,1.174921989440918,0.981277883052826,28.244022705078123
1765999890824877300,30.954877197265624,1.2779290676116943,1.5487712621688845,1.1726312637329102,28.262802001953123
1765999890862435800,30.992435791015627,1.1838558912277222,1.5108976364135742,1.3415354490280151,28.300360595703125
1765999890881215200,31.01121533203125,1.1407899856567385,1.1084904670715332,1.3852123022079468,28.319140136718747
1765999890899994400,31.029994384765622,1.0595449209213257,0.8531489968299866,1.392389893531799,28.33791918945312
1765999890918773800,31.048773681640625,0.948520302772522,0.7792344093322754,1.372994899749756,28.356698486328124
1765999890937553000,31.067552978515625,0.8142827749252319,0.8152754306793213,1.3167953491210938,28.375477783203124
1765999890956332300,31.086332275390625,0.6980656981468201,0.9056833982467652,1.237993836402893,28.394257080078123
1765999890975111700,31.105111572265624,0.6669116020202637,0.8841503858566284,1.1727839708328247,28.413036376953123
