time,seconds_elapsed,z,y,x,t
1765999886862444000,26.99244409179688,0.0658206790685653,0.0443640537559986,-0.0935386717319488,24.30036889648438
1765999886881223400,27.01122338867188,0.0636826530098915,0.0155006935819983,-0.0920115038752555,24.31914819335938
1765999886900002600,27.03000244140625,0.0693331509828567,0.0032833982259035,-0.0884990319609642,24.33792724609375
1765999886918782000,27.048781982421875,0.0791069865226745,0.0260381121188402,-0.0781143307685852,24.356706787109374
1765999886937561300,27.067561279296875,0.0891862586140632,0.0573449321091175,-0.0594829581677913,24.375486083984374
1765999886956340500,27.086340576171875,0.0965166315436363,0.0800996422767639,-0.0370336771011352,24.394265380859373
1765999886975120000,27.105119873046878,0.1090393662452697,0.0738382786512374,-0.0196240302175283,24.413044677734376
1765999886993899300,27.123899169921877,0.1130099818110466,0.0384081229567527,-0.0061850058846175,24.431823974609376
1765999887012678400,27.142678466796877,0.1224783882498741,-0.0037415467668324,-0.0017562361899763,24.450603271484376
1765999887031457800,27.16145776367188,0.1307250559329986,-0.0466547980904579,-0.004810560029,24.46938256835938
1765999887050237000,27.18023681640625,0.1334739476442337,-0.0807105079293251,-0.0064904382452368,24.48816162109375
1765999887069016300,27.19901635742188,0.136986419558525,-0.1327867358922958,-0.0072540193796157,24.506941162109378
1765999887087795700,27.217795654296875,0.1330158114433288,-0.1773798614740371,-0.015347977168858,24.525720458984374
1765999887106574800,27.236574951171875,0.1240055486559867,-0.1877645552158355,-0.0252745300531387,24.544499755859373
1765999887125354200,27.255354248046874,0.1206457912921905,-0.2097556889057159,-0.029245151206851,24.563279052734373
1765999887144133600,27.274133544921877,0.1114828214049339,-0.2096029818058014,-0.0322994738817215,24.582058349609376
1765999887162912800,27.292912841796877,0.0981965139508247,-0.1682168841361999,-0.0335212051868438,24.600837646484376
1765999887181692200,27.31169213867188,0.0861319303512573,-0.1202640011906623,-0.0316886119544506,24.61961694335938
1765999887200471600,27.33047143554688,0.0775798261165618,-0.1121700480580329,-0.0251218136399984,24.63839624023438
1765999887219250700,27.34925073242188,0.0626136362552642,-0.1240819096565246,-0.0243582334369421,24.657175537109378
1765999887238030000,27.368030029296875,0.050854492932558,-0.0933859497308731,-0.0185550171881914,24.675954833984374
1765999887256809500,27.3868095703125,0.0348192937672138,-0.0348956510424613,-0.0086284652352333,24.694734375
1765999887275588600,27.405588623046874,0.019700389355421,0.0124463699758052,0.0005345066892914,24.713513427734373
1765999887294368000,27.424367919921878,0.0047342018224298,0.0381026901304721,0.0043524117209017,24.732292724609376
1765999887313147400,27.4431474609375,-0.0080939587205648,0.061010118573904,0.0071013029664754,24.751072265624998
1765999887331926500,27.46192651367188,-0.0250454563647508,0.0978147238492965,0.0066431546583771,24.76985131835938
1765999887350706000,27.48070581054688,-0.0372627526521682,0.1471420526504516,0.0103083429858088,24.78863061523438
1765999887369485300,27.4994853515625,-0.0394007787108421,0.1647044122219085,0.0182495843619108,24.80741015625
1765999887388264400,27.518264404296875,-0.0311541035771369,0.1408806890249252,0.0237473677843809,24.826189208984374
1765999887407043800,27.5370439453125,-0.0193949565291404,0.0999527499079704,0.0266489759087562,24.84496875
1765999887425823200,27.5558232421875,-0.0103847011923789,0.0822376683354377,0.0228310711681842,24.863748046875
1765999887453992200,27.5839921875,-0.0120645789429545,0.0881936028599739,0.015347977168858,24.8919169921875
1765999887472771300,27.60277124023437,-0.0157297682017087,0.0660497546195983,0.0093920463696122,24.91069604492187
1765999887491550700,27.62155078125,-0.0218384154140949,0.0234419368207454,0.0032833982259035,24.9294755859375
1765999887510330000,27.640330078125,-0.0352774411439895,-0.0012980876490473,-0.0057268571108579,24.9482548828125
1765999887529109200,27.65910913085937,-0.0561995580792427,0.0109192077070474,-0.0187077336013317,24.96703393554687
1765999887547888600,27.677888671875,-0.0772743970155716,0.0465020798146724,-0.0358119495213031,24.985813476562498
1765999887566668000,27.69666796875,-0.098501943051815,0.0741437152028083,-0.0542906075716018,25.004592773437498
1765999887585447200,27.715447265625,-0.1180496215820312,0.0998000353574752,-0.0715475380420684,25.023372070312497
1765999887604226600,27.7342265625,-0.13423752784729,0.1410334110260009,-0.0804050788283348,25.0421513671875
1765999887623006000,27.753005859375,-0.1437059342861175,0.173256516456604,-0.083306685090065,25.0609306640625
1765999887641785000,27.77178515625,-0.1446222364902496,0.1883754283189773,-0.0816268026828765,25.0797099609375
1765999887660564500,27.790564453125,-0.1375972926616668,0.1935677826404571,-0.0721584036946296,25.0984892578125
1765999887679343900,27.80934375,-0.1287397593259811,0.173256516456604,-0.0611628368496894,25.1172685546875
1765999887698123000,27.828123046875,-0.1217148080468177,0.1388953775167465,-0.054901473224163,25.1360478515625
1765999887716902400,27.84690234375,-0.1081230640411377,0.1011744812130928,-0.0419205948710441,25.154827148437498
1765999887735681800,27.865681884765625,-0.0933095961809158,0.0807105079293251,-0.0310777463018894,25.173606689453123
1765999887754461000,27.8844609375,-0.0823140293359756,0.067118763923645,-0.0191658828407526,25.192385742187497
1765999887773240300,27.903240234375,-0.0681114196777343,0.0552069060504436,-0.0064904382452368,25.2111650390625
1765999887792019700,27.922019775390623,-0.0633772239089012,0.0199294630438089,-0.0092393299564719,25.229944580078122
1765999887810798800,27.940798828125,-0.0697913020849227,0.018860450014472,-0.0193185992538929,25.2487236328125
1765999887829578200,27.959578125,-0.0697913020849227,0.0333684869110584,-0.0237473677843809,25.2675029296875
1765999887848357400,27.978357421875,-0.067347839474678,0.0455857850611209,-0.0289397183805704,25.2862822265625
1765999887867136800,27.99713671875,-0.0699440166354179,0.0628427118062973,-0.0391717031598091,25.305061523437498
1765999887885916200,28.015916259765625,-0.0742200687527656,0.0741437152028083,-0.0420733131468296,25.323841064453124
1765999887904695300,28.0346953125,-0.0746782198548317,0.0822376683354377,-0.046807512640953,25.342620117187497
1765999887923474700,28.053474609375,-0.070096731185913,0.0607046857476234,-0.0442113392055034,25.3613994140625
1765999887942254000,28.072254150390624,-0.0644462332129478,0.0410043001174926,-0.0365755297243595,25.380178955078122
1765999887961033200,28.091033203125,-0.0607810467481613,0.0466547980904579,-0.0289397183805704,25.3989580078125
1765999887979812600,28.1098125,-0.0543669648468494,0.0602465383708477,-0.0158061254769563,25.4177373046875
1765999887998592000,28.128592041015622,-0.0456621423363685,0.0570394992828369,-0.0017562361899763,25.43651684570312
1765999888017371100,28.14737109375,-0.0343611426651477,0.034132070839405,0.0122936535626649,25.455295898437498
1765999888036150500,28.166150634765625,-0.0152716198936104,0.0237473677843809,0.025427246466279,25.474075439453124
1765999888054930000,28.184929931640625,0.0004581485991366,-0.0006872228696011,0.0396298542618751,25.492854736328123
1765999888073709000,28.203708984375,0.0076358099468052,-0.0116827888414263,0.0547487549483776,25.5116337890625
1765999888092488400,28.222488525390624,0.0149661870673298,-0.0310777463018894,0.0642171576619148,25.530413330078122
1765999888111267600,28.241267578125,0.0369573198258876,-0.1039233729243278,0.0758235901594162,25.5491923828125
1765999888130047000,28.260046875,0.0372627526521682,-0.1964693814516067,0.0872773081064224,25.5679716796875
1765999888148826400,28.278826416015622,0.0210748352110385,-0.155236005783081,0.1034652218222618,25.58675122070312
1765999888167605500,28.29760546875,-0.0009162971982732,-0.0264962594956159,0.1169042438268661,25.6055302734375
1765999888186385000,28.316385009765625,-0.0122172953560948,0.0874300226569175,0.1300378441810608,25.624309814453124
1765999888205164300,28.335164306640625,-0.013133592903614,0.1191949918866157,0.1366046369075775,25.643089111328123
1765999888223943400,28.353943359375,-0.0323758348822593,0.109115719795227,0.1300378441810608,25.661868164062497
1765999888242722800,28.372722900390624,-0.0435241162776947,0.1152243688702583,0.1243873387575149,25.680647705078123
1765999888261502200,28.391502197265623,-0.0514653585851192,0.1395062506198883,0.117209680378437,25.699427001953122
1765999888280281300,28.41028125,-0.0667369738221168,0.1596647799015045,0.1126281917095184,25.7182060546875
1765999888299060700,28.429060791015623,-0.0690277218818664,0.0808632224798202,0.1005636155605316,25.73698559570312
1765999888317840100,28.447840087890626,-0.0687222853302955,-0.0226783547550439,0.081015944480896,25.755764892578124
1765999888336619300,28.466619384765625,-0.0783434063196182,-0.0875827372074127,0.0678823515772819,25.774544189453124
1765999888355398700,28.485398681640625,-0.0820086002349853,-0.0901789143681526,0.0484873913228511,25.793323486328124
1765999888374178000,28.504177978515624,-0.0812450125813484,-0.0944549664855003,0.03138317912817,25.812102783203123
1765999888392957200,28.522957275390624,-0.0745255053043365,-0.1413388401269912,0.028176138177514,25.830882080078123
1765999888411736600,28.541736572265624,-0.1009454056620597,-0.1987601220607757,0.0246636662632226,25.849661376953122
1765999888430516000,28.560515869140627,-0.1171333193778991,-0.2161697745323181,0.0145843969658017,25.868440673828125
1765999888449295000,28.579295166015623,-0.1360701322555542,-0.2236528694629669,0.0043524117209017,25.88721997070312
1765999888468074500,28.598074462890622,-0.157755821943283,-0.2494619041681289,-0.0045051276683807,25.90599926757812
1765999888486854000,28.61685400390625,-0.1794415265321731,-0.2581667304039001,-0.0067958706058561,25.92477880859375
1765999888505633300,28.63563330078125,-0.2002109289169311,-0.2358701676130294,-0.0005345066892914,25.94355810546875
1765999888524412400,28.654412353515625,-0.2130390852689743,-0.1831830739974975,0.0196240302175283,25.962337158203123
1765999888543191800,28.67319189453125,-0.2203694730997085,-0.1300378441810608,0.0674242004752159,25.98111669921875
1765999888561971000,28.691970947265624,-0.2021962404251098,-0.0907897800207138,0.1556941568851471,25.999895751953122
1765999888580750300,28.710750244140623,-0.1487455666065216,-0.0095447618514299,0.2971093654632568,26.018675048828122
1765999888599529700,28.72952978515625,-0.0523816533386707,0.0355065166950225,0.22640176117420194,26.037454589843747
1765999888618309000,28.74830908203125,0.0699440166354179,0.0666606202721595,0.2971093654632568,26.056233886718747
1765999888637088300,28.767088134765626,0.2313650399446487,0.0370336771011352,-0.0061850058846175,26.075012939453124
1765999888655867600,28.78586767578125,0.430048793554306,-0.1243873387575149,-0.0061850058846175,26.09379248046875
1765999888674646800,28.804646728515625,0.6255255341529846,-0.6257545948028564,-0.0061850058846175,26.112571533203123
1765999888693426200,28.82342626953125,0.8350521326065063,-0.7284562289714813,-0.0061850058846175,26.13135107421875
1765999888712205600,28.84220556640625,0.8190169334411621,-0.871627688407898,-0.0061850058846175,26.15013037109375
1765999888730984700,28.860984619140623,0.8190169334411621,-0.8311578631401062,-0.0770453214645385,26.168909423828122
1765999888749764000,28.87976416015625,0.8190169334411621,-0.8740711212158203,-0.0770453214645385,26.187688964843748
1765999888768543500,28.89854345703125,0.649349257349968,-0.8526144921779633,-0.0770453214645385,26.206468261718747
1765999888787322600,28.917322509765626,0.30566146969795227,-0.8740711212158203,-0.0770453214645385,26.225247314453124
1765999888806102000,28.93610205078125,0.4796815812587738,0.02489273995161055,-0.0770453214645385,26.24402685546875
1765999888824881400,28.95488134765625,0.1316413581371307,0.02489273995161055,-0.0061850058846175,26.26280615234375
1765999888853050400,28.98305029296875,0.0934623107314109,0.02489273995161055,-0.0061850058846175,26.290975097656247
1765999888871829500,29.00182958984375,0.119729496538639,0.02489273995161055,-0.0061850058846175,26.30975439453125
