time,seconds_elapsed,z,y,x,t
1766000044147185400,26.36818530273437,0.5630590915679932,0.5374670028686523,2.224092483520508,24.094573730468746
1766000044165965300,26.38696533203125,-0.1812005043029785,0.7394018173217773,0.9829761981964112,24.113353759765623
1766000044184745000,26.405744873046874,-0.8982009887695312,0.6588811874389648,0.0112563371658325,24.13213330078125
1766000044203524900,26.42452490234375,-1.288459062576294,0.3253850936889648,-0.7454826831817627,24.150913330078126
1766000044222304800,26.4433046875,-1.1845440864562988,-0.0138816833496093,-1.2659728527069092,24.169693115234374
1766000044241084700,26.462084716796877,-0.6142523288726807,-0.1620674133300781,-1.4673616886138916,24.18847314453125
1766000044259864300,26.4808642578125,0.0482890605926513,-0.173832893371582,-1.304818034172058,24.207252685546873
1766000044278644200,26.499644287109376,0.4511034488677978,-0.099156379699707,-1.1306633949279783,24.22603271484375
1766000044297424100,26.518424072265624,0.4130418300628662,-0.0430946350097656,-0.6556930541992188,24.2448125
1766000044316203800,26.53720385742188,0.159306526184082,0.0684156417846679,-0.2867952287197113,24.263592285156253
1766000044334983700,26.555983642578123,0.068727970123291,0.1462240219116211,0.2893623113632202,24.282372070312498
1766000044353763600,26.574763671875,0.2324514389038086,0.1457700729370117,1.027677059173584,24.301152099609375
1766000044372543500,26.59354345703125,0.337151288986206,0.0915288925170898,1.376236081123352,24.319931884765623
1766000044391323400,26.61232348632813,0.4195268154144287,0.0497808456420898,1.0975534915924072,24.338711914062504
1766000044410103000,26.63110302734375,0.5099153518676758,-0.0097217559814453,0.5666067600250244,24.357491455078126
1766000044428883000,26.649883056640626,0.6592354774475098,-0.0700254440307617,0.0085679786279797,24.376271484375
1766000044447662800,26.668662841796877,0.94467294216156,-0.1209297180175781,-0.3694797456264496,24.39505126953125
1766000044466442800,26.68744287109375,1.17732834815979,-0.1139020919799804,-0.5427342057228088,24.413831298828125
1766000044485222400,26.706222412109376,1.234348177909851,-0.1611471176147461,-0.5814632177352905,24.43261083984375
1766000044504002300,26.725002197265624,1.1830676794052124,-0.1797361373901367,-0.5866408944129944,24.451390625
1766000044522782200,26.7437822265625,0.9770162105560304,-0.1498584747314453,-0.4186978340148926,24.470170654296876
1766000044541561900,26.762561767578124,0.900559663772583,-0.1416177749633789,-0.2334696650505066,24.488950195312498
1766000044560341800,26.781341796875,0.7885346412658691,-0.1061525344848632,-0.0220679640769958,24.507730224609375
1766000044579121700,26.80012158203125,0.7542304992675781,0.0652284622192382,0.0373342335224151,24.526510009765623
1766000044597901600,26.81890161132813,0.792422890663147,0.2437248229980468,0.0757726430892944,24.545290039062504
1766000044616681200,26.83768115234375,0.8122625350952148,0.2478389739990234,0.1023215949535369,24.564069580078126
1766000044635461000,26.856461181640626,0.6726323366165161,0.0962858200073242,0.0690990984439849,24.582849609375
1766000044654241000,26.875240966796877,0.5151593685150146,-0.14666748046875,-0.0142993927001953,24.60162939453125
1766000044673021000,26.89402099609375,0.3804984092712402,-0.2907333374023437,-0.0177486836910247,24.620409423828125
1766000044691800600,26.912800537109376,0.144505500793457,-0.2544412612915039,0.051544964313507,24.63918896484375
1766000044710580500,26.93158056640625,-0.0906684398651123,-0.0248575210571289,-0.0709221065044403,24.657968994140624
1766000044729360400,26.9503603515625,-0.270665168762207,0.215728759765625,-0.1183325052261352,24.676748779296876
1766000044748140300,26.969140380859372,-0.2377917766571045,0.3190879821777344,-0.0690284371376037,24.695528808593746
1766000044766920000,26.987919921875,-0.1353726387023925,0.1486043930053711,0.1352979242801666,24.714308349609375
1766000044785699800,27.006699951171875,-0.0724012851715087,-0.035984992980957,0.1749547719955444,24.73308837890625
1766000044804479700,27.025479736328126,-0.1777162551879882,-0.0406961441040039,0.1995096504688263,24.7518681640625
1766000044823259400,27.04425927734375,-0.2311451435089111,0.0609464645385742,0.1027895808219909,24.770647705078122
1766000044842039300,27.063039306640626,-0.2444832324981689,0.1348352432250976,-0.0271251201629638,24.789427734375
1766000044860819200,27.081819091796877,-0.2323641777038574,0.0355100631713867,-0.1922394037246704,24.80820751953125
1766000044879599000,27.10059912109375,-0.1655788421630859,-0.0614891052246093,-0.3154698610305786,24.826987548828125
1766000044898378800,27.119378662109376,0.0480670928955078,-0.0867214202880859,-0.2946825623512268,24.84576708984375
1766000044917158700,27.13815869140625,0.0957908630371093,-0.0620355606079101,-0.3482799530029297,24.864547119140624
1766000044935938600,27.1569384765625,0.1001238822937011,-0.0579004287719726,-0.3638842701911926,24.883326904296876
1766000044954718200,27.17571826171875,0.2182235717773437,-0.0815057754516601,-0.360217809677124,24.902106689453124
1766000044973498000,27.194498046875,0.2957568168640136,-0.0554027557373046,-0.270213782787323,24.920886474609375
1766000044992278000,27.213278076171875,0.2740306854248047,-0.0392827987670898,-0.2485666871070861,24.93966650390625
1766000045011058000,27.232057861328126,0.1914892196655273,-0.0652437210083007,-0.1977114081382751,24.9584462890625
1766000045029837600,27.25083764648437,0.0866167545318603,-0.0336818695068359,-0.0789684653282165,24.977226074218745
1766000045048617500,27.269617431640626,-0.0326368808746337,0.0486774444580078,-0.0021800994873046,24.996005859375
1766000045067397400,27.2883974609375,-0.134573221206665,0.0221319198608398,-0.0631518363952636,25.014785888671874
1766000045086177000,27.307177001953125,-0.2022476196289062,-0.0834426879882812,-0.17057865858078,25.0335654296875
1766000045104957000,27.32595703125,-0.2184240818023681,-0.1032400131225586,-0.1980451941490173,25.052345458984373
1766000045123736800,27.34473681640625,-0.2390871047973632,-0.0895519256591796,-0.1789571046829223,25.071125244140624
1766000045142516500,27.3635166015625,-0.2679336071014404,-0.0497598648071289,-0.1378171443939209,25.089905029296876
1766000045161296400,27.38229638671875,-0.2464461326599121,-0.0063552856445312,-0.2689962983131408,25.108684814453124
1766000045180076300,27.401076171875,-0.2090363502502441,-0.0592784881591796,-0.2402839064598083,25.127464599609375
1766000045198856200,27.419856201171875,-0.2575368881225586,-0.1224365234375,-0.0621517300605773,25.14624462890625
1766000045217635800,27.4386357421875,-0.2304267883300781,-0.0543708801269531,-0.0370919108390808,25.165024169921875
1766000045236415700,27.45741577148437,-0.1353194713592529,0.1660852432250976,-0.054175317287445,25.183804199218745
1766000045255195600,27.476195556640626,0.0457229614257812,0.1549825668334961,0.1405621767044067,25.202583984375
1766000045273975300,27.494975341796877,0.1662566661834716,0.0294198989868164,0.1445317864418029,25.22136376953125
1766000045292755200,27.513755126953125,0.2820854187011719,-0.0331649780273437,0.0731346011161804,25.2401435546875
1766000045311535000,27.53253515625,0.3046321868896484,0.001479148864746,0.0590944290161132,25.258923583984373
1766000045330315000,27.55131494140625,0.1899724006652832,-0.0622329711914062,-0.017884612083435,25.277703369140625
1766000045349094700,27.5700947265625,-0.0132358074188232,-0.1376972198486328,-0.0827959179878234,25.296483154296872
1766000045367874600,27.58887451171875,-0.1916432380676269,-0.0670118331909179,-0.1329194903373718,25.315262939453124
1766000045424214000,27.645214111328126,-0.8177528381347656,0.0658521652221679,-0.9312872886657716,25.3716025390625
1766000045452383700,27.6733837890625,-0.3615565299987793,0.0563564300537109,0.1756623983383178,25.399772216796872
1766000045471163600,27.69216357421875,-0.0673325061798095,0.0323448181152343,0.5305538177490234,25.418552001953124
1766000045489943600,27.710943603515624,0.315617561340332,0.0780487060546875,0.5469056367874146,25.437332031249998
1766000045508723200,27.72972314453125,0.7502427101135254,0.0884428024291992,0.5387030839920044,25.456111572265623
1766000045527503000,27.748503173828126,1.1547296047210691,0.096719741821289,0.3997732996940613,25.4748916015625
1766000045546283000,27.76728295898437,1.8016788959503172,0.2760457992553711,-0.1586695909500122,25.493671386718745
1766000045565062700,27.786062744140622,2.821550130844116,0.5659074783325195,-0.6699647903442383,25.512451171874996
1766000045583842600,27.804842529296877,3.3535282611846924,0.8950996398925781,-1.805172324180603,25.53123095703125
1766000045602622500,27.82362255859375,4.291429996490479,0.8256101608276367,-3.0544919967651367,25.550010986328125
1766000045621402000,27.842402099609377,4.680217742919922,0.750981330871582,-3.0544919967651367,25.56879052734375
1766000045640182000,27.86118212890625,4.26470422744751,0.8738784790039062,-3.0544919967651367,25.587570556640625
1766000045658962000,27.8799619140625,3.245147228240967,1.4217462539672852,-3.288832187652588,25.606350341796873
1766000045677741600,27.898741455078124,1.9738141298294067,1.5789127349853516,-1.9553738832473757,25.625129882812498
1766000045696521500,27.917521484375,0.964629888534546,1.5003294944763184,-0.9747820496559144,25.643909912109375
1766000045715301400,27.93630126953125,0.7973446846008301,1.4838924407958984,0.1710983216762542,25.662689697265623
1766000045734081000,27.9550810546875,-0.275864839553833,0.9556059837341307,2.2700793743133545,25.681469482421875
1766000045752861000,27.97386083984375,-1.378068447113037,1.388872146606445,3.133596897125244,25.700249267578123
1766000045771640800,27.992640869140622,-2.1110782623291016,0.5223398208618164,2.732306480407715,25.719029296874997
1766000045790420700,28.011420654296877,-1.2443768978118896,-0.2907934188842773,3.0449864864349365,25.73780908203125
1766000045809200400,28.030200439453125,-1.0788719654083252,-0.3057270050048828,2.503852844238281,25.7565888671875
1766000045827980300,28.048980224609377,-1.058241367340088,-0.0006618499755859,1.9727563858032229,25.77536865234375
1766000045846760200,28.06776025390625,-1.4385714530944824,0.6727619171142578,1.881171464920044,25.794148681640625
1766000045865539800,28.08653979492188,-0.966899871826172,1.390411376953125,1.5429973602294922,25.812928222656254
1766000045884319700,28.10531982421875,4.070528030395508,0.1705141067504882,1.339488863945007,25.831708251953124
1766000045903099600,28.124099609375,-1.0328229069709778,0.7804627418518066,-1.7478752136230469,25.850488037109375
1766000045921879300,28.14287939453125,-2.209162473678589,0.1705141067504882,1.339488863945007,25.869267822265623
1766000045940659200,28.1616591796875,-1.0987459421157837,-1.192434310913086,2.963676929473877,25.888047607421875
1766000045959439000,28.18043920898437,3.2553136348724365,-0.5310873985290527,3.2236186265945435,25.906827636718745
1766000045978218800,28.19921875,1.8133279085159304,-1.192434310913086,2.963676929473877,25.925607177734374
1766000045996998700,28.21799853515625,-0.4098861217498779,0.1302595138549804,3.48356032371521,25.944386962890626
1766000046015778600,28.236778564453125,-1.3248662948608398,-0.9485349655151368,0.1377031058073043,25.9631669921875
1766000046034558200,28.25555810546875,-1.9049537181854248,-1.1662797927856443,-3.160024642944336,25.981946533203125
1766000046053338000,28.274338134765625,-2.077589273452759,-1.0574073791503906,-2.162889003753662,26.0007265625
1766000046072118000,28.29311791992188,-2.754858493804932,-1.1662797927856443,-0.3378069400787353,26.019506347656254
1766000046090897700,28.311897705078124,-3.19571304321289,-0.00350856781005855,0.832474410533905,26.038286132812498
1766000046109677600,28.330677490234372,-3.2980334758758545,-0.00350856781005855,1.0013713836669922,26.057065917968746
1766000046128457500,28.34945751953125,-3.3664567470550537,-0.00350856781005855,0.4301201701164245,26.075845947265623
1766000046147237000,28.368237060546875,-3.2123751640319824,-0.00350856781005855,-0.3215477466583252,26.09462548828125
1766000046166017000,28.38701708984375,-2.911726713180542,-0.00350856781005855,-0.9778395295143129,26.113405517578123
