time,seconds_elapsed,z,y,x,t
1766000028165504800,10.3865048828125,-2.7984743118286133,5.616440773010254,4.274564743041992,8.112893310546877
1766000028184284400,10.405284423828125,-0.4694736003875732,-1.3659162521362305,5.325636863708496,8.1316728515625
1766000028203064300,10.424064208984374,-0.0181511640548706,-1.686488151550293,-0.0694411993026733,8.15045263671875
1766000028221844200,10.44284423828125,-1.2428269386291504,-0.2339735031127929,-0.6933033466339111,8.169232666015626
1766000028240624000,10.4616240234375,-2.801870584487915,-1.3125085830688477,2.539712429046631,8.188012451171875
1766000028259404000,10.480404052734375,-3.0279245376586914,-2.2650766372680664,3.2035725116729736,8.206792480468751
1766000028278184000,10.499183837890625,-3.018329620361328,-2.712909698486328,2.113309860229492,8.225572265625
1766000028296963800,10.5179638671875,-3.180819034576416,-3.318894863128662,0.4014713764190674,8.244352294921876
1766000028315743500,10.536743408203124,-3.0237855911254883,-3.47983980178833,-1.601253867149353,8.2631318359375
1766000028334523400,10.5555234375,-2.9841148853302,-3.3483872413635254,-3.181370258331299,8.281911865234376
1766000028353303300,10.57430322265625,-3.191498279571533,-3.130176544189453,-3.526084423065185,8.300691650390625
1766000028372083200,10.593083251953123,-3.44069766998291,-2.9131078720092773,-2.7996208667755127,8.3194716796875
1766000028400253000,10.6212529296875,-3.6600148677825928,-2.680551052093506,-1.7932974100112915,8.347641357421876
1766000028419032800,10.64003271484375,-3.364574193954468,-2.5700197219848637,-1.418965458869934,8.366421142578126
1766000028437812700,10.658812744140626,-3.019110202789306,-2.37088394165039,-0.7989453673362732,8.385201171875002
1766000028456592600,10.677592529296875,-2.691516876220703,-1.9882478713989256,-0.4273527860641479,8.403980957031251
1766000028475372500,10.69637255859375,-2.3686962127685547,-1.5869112014770508,-0.2725948691368103,8.422760986328125
1766000028494152400,10.71515234375,-2.27131462097168,-1.3355846405029297,0.0349930524826049,8.441540771484377
1766000028512932000,10.73393212890625,-2.0471205711364746,-1.2043447494506836,0.2369301319122314,8.460320556640626
1766000028531712000,10.7527119140625,-1.8985300064086916,-1.1379718780517578,0.2857170104980469,8.479100341796876
1766000028550492000,10.771491943359376,-1.7220728397369385,-1.0331916809082031,0.2543847560882568,8.497880371093752
1766000028569271800,10.790271728515624,-1.5960392951965332,-0.8744945526123047,0.2587605714797973,8.51666015625
1766000028588051700,10.8090517578125,-1.475161910057068,-0.6135225296020508,0.1303939819335937,8.535440185546875
1766000028606831600,10.82783154296875,-1.4029428958892822,-0.4301433563232422,0.2308396100997924,8.554219970703127
1766000028625611500,10.846611572265624,-1.505868434906006,-0.2972612380981445,0.2536610960960388,8.573
1766000028644391200,10.86539111328125,-1.5458598136901855,-0.3216228485107422,0.2220603227615356,8.591779541015626
1766000028663171000,10.884171142578126,-1.4040555953979492,-0.3545694351196289,0.0412771105766296,8.610559570312502
1766000028681951000,10.902950927734375,-1.3091306686401367,-0.0730161666870117,-0.2784151434898376,8.629339355468751
1766000028700731000,10.92173095703125,-1.145893096923828,0.2214431762695312,-0.3484729528427124,8.648119384765627
1766000028719510800,10.9405107421875,-1.088247299194336,0.3747406005859375,-0.4927950799465179,8.666899169921876
1766000028738290700,10.959290771484374,-0.8652806282043457,0.6366024017333984,-0.7624108195304871,8.68567919921875
1766000028757070600,10.978070556640626,-0.866511344909668,1.1680498123168943,-0.8284168839454651,8.704458984375002
1766000028775850500,10.9968505859375,-0.639650821685791,1.7875442504882812,-1.0061203241348269,8.723239013671876
1766000028794630100,11.015630126953123,-0.3156952857971191,1.8090028762817385,-1.2132062911987305,8.7420185546875
1766000028813410000,11.03441015625,-0.1058897972106933,1.2393779754638672,-1.164259433746338,8.760798583984377
1766000028832190000,11.05318994140625,-0.1661291122436523,0.8712835311889648,-0.7537902593612671,8.779578369140626
1766000028850969900,11.071969970703124,-0.1689457893371582,0.8240089416503906,-0.4191750586032867,8.7983583984375
1766000028869749800,11.090749755859376,0.0980339050292968,1.1685142517089844,-0.0614344179630279,8.817138183593752
1766000028888529700,11.10952978515625,0.2642531394958496,1.4451675415039062,0.2258018553256988,8.835918212890626
1766000028907309300,11.128309326171877,0.4281001091003418,1.2236814498901367,0.3498728275299072,8.854697753906253
1766000028926089200,11.147089111328125,0.3128657341003418,0.8356723785400391,0.5293561220169067,8.8734775390625
1766000028944869000,11.165869140625,0.2421841621398925,0.598597526550293,0.6665772199630737,8.892257568359376
1766000028963649000,11.18464892578125,0.178746223449707,0.5118513107299805,1.1042015552520752,8.911037353515626
1766000028982429000,11.203428955078126,0.2471685409545898,0.4240369796752929,1.613932728767395,8.929817382812502
1766000029001208800,11.222208740234375,-0.5144867897033691,0.8828201293945312,1.747732639312744,8.948597167968751
1766000029019988700,11.24098876953125,1.194387674331665,1.3630361557006836,0.805269718170166,8.967377197265625
1766000029038768400,11.259768310546876,1.241316318511963,1.2824211120605469,-0.7293671369552612,8.986156738281252
1766000029057548300,11.27854833984375,0.9988284111022948,1.2489089965820312,-1.3804811239242554,9.004936767578126
1766000029076328200,11.297328125,0.9254708290100098,1.4459505081176758,-0.8604027032852173,9.023716552734376
1766000029095108000,11.316108154296876,1.2272319793701172,0.9784555435180664,-0.5710882544517517,9.042496582031252
1766000029113888000,11.334887939453123,1.130074977874756,0.4991483688354492,-1.258596420288086,9.0612763671875
1766000029132668000,11.35366796875,1.0789573192596436,1.050520896911621,-1.687993049621582,9.080056396484377
1766000029151447800,11.37244775390625,1.2209587097167969,1.7466535568237305,-1.764024257659912,9.098836181640626
1766000029170227700,11.391227783203124,1.427807331085205,1.4904088973999023,-1.79860520362854,9.1176162109375
1766000029189007400,11.41000732421875,1.6570448875427246,0.8722963333129883,-1.620222806930542,9.136395751953126
1766000029207787300,11.428787353515624,1.8136067390441892,0.4536762237548828,-0.8632934093475342,9.15517578125
1766000029226567200,11.447567138671875,1.7138195037841797,0.2888040542602539,-0.0386021435260772,9.173955566406251
1766000029245347000,11.46634716796875,1.1076865196228027,0.2622928619384765,0.4725210964679718,9.192735595703127
1766000029264127000,11.485126953125,1.505692481994629,0.4307994842529297,1.0635348558425903,9.211515380859376
1766000029282907000,11.503906982421874,1.5530242919921875,0.4322900772094726,1.2238004207611084,9.23029541015625
1766000029301686800,11.522686767578126,1.3343486785888672,0.5119762420654297,0.9417403936386108,9.249075195312502
1766000029320466700,11.541466796875,1.190544843673706,0.5481653213500977,0.8903963565826416,9.267855224609375
1766000029339246300,11.560246337890623,0.8247146606445312,0.5475358963012695,0.8291205763816833,9.286634765625
1766000029358026200,11.579026123046877,0.7456884384155273,0.9698238372802734,0.7899622917175293,9.305414550781252
1766000029376806100,11.59780615234375,1.0335373878479004,1.229496955871582,0.2720589637756347,9.324194580078126
1766000029395586000,11.6165859375,1.4103469848632812,1.0638084411621094,-0.3324062526226043,9.342974365234376
1766000029414366000,11.635365966796876,1.249234914779663,1.1576929092407229,-0.4720072150230407,9.361754394531252
1766000029433145900,11.654145751953124,0.713019847869873,1.476222038269043,-0.3787487745285034,9.3805341796875
1766000029451925800,11.67292578125,0.7290923595428467,1.1675148010253906,-0.6881649494171143,9.399314208984375
1766000029470705400,11.691705322265625,0.4722957611083984,-0.1306285858154297,-0.3332380056381225,9.41809375
1766000029489485300,11.7104853515625,-0.0364842414855957,-0.7546930313110352,0.6634858846664429,9.436873779296876
1766000029508265200,11.72926513671875,-0.3213224411010742,-0.5818424224853516,1.3254629373550415,9.455653564453126
1766000029527045000,11.748045166015626,-0.484860897064209,-0.1139049530029296,0.8308515548706055,9.474433593750001
1766000029545825000,11.766824951171875,0.0151410102844238,0.4075899124145508,0.1603622585535049,9.493213378906251
1766000029564605000,11.78560498046875,0.7112784385681152,1.3633756637573242,0.3029381334781647,9.511993408203127
1766000029583384800,11.804384765625,1.034987211227417,2.5021896362304688,-0.4447987675666809,9.530773193359376
1766000029602164500,11.82316455078125,1.096635818481445,3.6895980834960938,-1.7254034280776978,9.549552978515626
1766000029620944400,11.8419443359375,0.7255702018737793,3.636486053466797,-3.2252917289733887,9.568332763671876
1766000029639724300,11.860724365234375,0.5202696323394775,2.5097579956054688,-3.0175797939300537,9.587112792968751
1766000029658504200,11.879504150390623,0.155045747756958,2.504509925842285,-2.049119472503662,9.605892578125
1766000029677284000,11.8982841796875,-0.1032195091247558,2.5811843872070312,-0.8517168164253235,9.624672607421877
1766000029696064000,11.91706396484375,2.07841157913208,1.5234241485595703,0.7348341941833496,9.643452392578126
1766000029714844000,11.935843994140624,-8.037962913513184,-3.852396965026856,1.2359824180603027,9.662232421875
1766000029733623800,11.954623779296876,0.000105857849121,2.0839529037475586,0.2893134951591491,9.681012207031252
1766000029752403700,11.97340380859375,-2.020575046539306,7.478254318237305,1.5944217443466189,9.699792236328125
1766000029771183400,11.992183349609377,0.1080844402313232,0.9870595932006836,1.465813159942627,9.718571777343753
1766000029789963300,12.01096337890625,0.4899095296859741,-0.5934629440307617,-4.004605293273926,9.737351806640627
1766000029808743200,12.0297431640625,-0.7670177221298218,-0.6689720153808594,-3.457548141479492,9.756131591796876
1766000029836913200,12.0579130859375,-1.3609652519226074,-0.905609130859375,3.956524848937988,9.784301513671876
1766000029855692800,12.07669287109375,-1.7615338563919067,-0.946965217590332,3.182684421539306,9.803081298828126
1766000029874472700,12.09547265625,-1.68477463722229,-1.632481575012207,2.1423254013061523,9.821861083984375
1766000029893252600,12.114252685546877,-2.4977097511291504,-2.578592300415039,1.2904374599456787,9.840641113281253
1766000029912032500,12.133032470703125,-3.2151012420654297,-2.9251766204833984,0.3087631464004516,9.8594208984375
1766000029930812400,12.1518125,-3.1216704845428467,-2.918388843536377,-0.5318248271942139,9.878200927734376
1766000029949592300,12.17059228515625,-3.127943754196167,-3.060644149780273,-1.097638726234436,9.896980712890626
1766000029968372200,12.189372314453124,-3.2097361087799072,-3.4863438606262207,-1.060039520263672,9.9157607421875
1766000029987152000,12.20815185546875,-3.219597339630127,-3.672486305236816,-0.8495157361030579,9.934540283203125
1766000030005931800,12.226931884765625,-3.1348981857299805,-3.424657821655273,-0.8353471159934998,9.9533203125
1766000030024711700,12.245711669921874,-3.0434041023254395,-3.250356674194336,-0.7345141172409058,9.97210009765625
1766000030043491600,12.26449169921875,-2.8924388885498047,-3.105893135070801,-0.5470227599143982,9.990880126953126
1766000030062271500,12.283271484375,-2.5722992420196533,-2.890052318572998,-0.292654275894165,10.009659912109376
1766000030081051400,12.302051513671875,-2.2516026496887207,-2.5140247344970703,-0.2782596349716186,10.028439941406251
1766000030099831300,12.320831298828123,-1.9603875875473025,-1.957784652709961,-0.2332864999771118,10.0472197265625
1766000030118611200,12.339611083984376,-1.6546971797943115,-1.5366544723510742,-0.3702430725097656,10.065999511718752
1766000030137391000,12.35839111328125,-1.5515226125717163,-1.3646507263183594,-0.5110701322555542,10.084779541015626
1766000030156171000,12.3771708984375,-1.402839183807373,-1.3226604461669922,-0.5625989437103271,10.103559326171876
