time,seconds_elapsed,z,y,x,t
1766000052170850600,34.3918505859375,0.1666897237300872,0.9549343585968018,-0.963333785533905,32.10415405273437
1766000052189630200,34.41063012695312,0.4486038088798523,-0.2096793353557586,-0.4132500290870666,32.12293359375
1766000052208410000,34.42941015625,0.1359937787055969,-0.7249437570571899,-0.1867718994617462,32.141713623046876
1766000052227189800,34.448189697265626,0.151112675666809,-0.8839213252067566,-0.2031125426292419,32.1604931640625
1766000052245969400,34.466969482421874,0.2633590698242187,-1.0473276376724243,-0.2649625837802887,32.17927294921875
1766000052264749300,34.48574926757812,0.4212676286697387,-1.0024291276931765,-0.3500255048274994,32.198052734375
1766000052283529000,34.50452905273438,0.4168388545513153,-0.8888082504272461,-0.4836521744728088,32.21683251953125
1766000052302308900,34.523308837890625,0.192651480436325,-0.5615374445915222,-0.5697841048240662,32.2356123046875
1766000052321088500,34.54208862304687,0.0008399390499107,0.0255036037415266,-0.5847502946853638,32.25439208984375
1766000052339868200,34.5608681640625,-0.0923169404268264,0.7067705392837524,-0.5894845128059387,32.27317163085937
1766000052358648000,34.57964794921875,-0.0585666596889495,1.180648922920227,-0.5781835317611694,32.29195141601563
1766000052377427700,34.598427734375,-0.0535270273685455,1.3116793632507324,-0.5653553605079651,32.310731201171876
1766000052396207400,34.617207275390626,-0.0443640537559986,1.1047489643096924,-0.5535961985588074,32.3295107421875
1766000052414987300,34.6359873046875,-0.0790306329727172,0.6728675365447998,-0.5422952175140381,32.34829077148437
1766000052433767000,34.65476684570312,-0.0532215945422649,0.2073885947465896,-0.5374082922935486,32.3670703125
1766000052452546600,34.67354663085938,0.0055741411633789,-0.0794124230742454,-0.5351175665855408,32.38585009765625
1766000052471326500,34.692326416015625,0.0400880016386508,-0.1629481762647628,-0.5490147471427917,32.4046298828125
1766000052490106000,34.71110620117187,0.0559704862534999,-0.1217148080468177,-0.5632173418998718,32.42340966796875
1766000052508885800,34.7298857421875,0.0498618371784687,-0.0536033846437931,-0.5714640021324158,32.442189208984374
1766000052527665700,34.748665771484376,0.0362700968980789,-0.0361937396228313,-0.5693259835243225,32.46096923828125
1766000052546445300,34.7674453125,0.0297033004462718,-0.1009454056620597,-0.5574141144752502,32.47974877929688
1766000052565225000,34.78622485351563,0.0187077336013317,-0.1736383140087127,-0.5532907843589783,32.4985283203125
1766000052584004900,34.8050048828125,0.0138208158314228,-0.2084576040506363,-0.5325213670730591,32.51730834960937
1766000052602784500,34.82378442382812,-0.0093920463696122,-0.2431241869926452,-0.4802924394607544,32.536087890625
1766000052621564200,34.84256420898438,-0.0358119495213031,-0.1722638607025146,-0.425925463438034,32.55486767578125
1766000052640344000,34.861343994140626,-0.051083568483591,-0.0656679645180702,-0.3738492429256439,32.5736474609375
1766000052659123700,34.88012377929687,-0.0538324601948261,0.0064140800386667,-0.3161225318908691,32.59242724609375
1766000052677903400,34.8989033203125,-0.0538324601948261,0.0233655776828527,-0.2619082629680633,32.611206787109374
1766000052696683300,34.917683349609376,-0.0515417158603668,-0.0174096468836069,-0.2205221801996231,32.62998681640625
1766000052715463000,34.936462890625,-0.0616209842264652,-0.0653625279664993,-0.1902843713760376,32.64876635742188
1766000052734242600,34.95524267578125,-0.0724638327956199,-0.1010981202125549,-0.1676823794841766,32.667546142578125
1766000052753022500,34.9740224609375,-0.0863610059022903,-0.1304196268320083,-0.1543960720300674,32.68632592773437
1766000052771802000,34.99280200195312,-0.095982126891613,-0.1362228393554687,-0.143553227186203,32.70510546875
1766000052790581800,35.01158178710938,-0.1140026375651359,-0.1308777779340744,-0.1227838173508644,32.72388525390625
1766000052809361700,35.030361572265626,-0.125761792063713,-0.116980604827404,-0.1001818254590034,32.7426650390625
1766000052828141300,35.049141357421874,-0.1442404389381408,-0.1165224537253379,-0.0740673542022705,32.76144482421875
1766000052846921000,35.0679208984375,-0.1621082425117492,-0.1249218508601188,-0.0494800470769405,32.780224365234375
1766000052865700900,35.08670092773438,-0.1857792437076568,-0.1230892539024353,-0.0259617529809474,32.79900439453125
1766000052884480500,35.10548046875,-0.2096029818058014,-0.1180496215820312,-0.0155770517885684,32.81778393554688
1766000052903260200,35.12426025390625,-0.2334267050027847,-0.1136208474636077,-0.0105374176055192,32.836563720703126
1766000052922039800,35.14303979492188,-0.2607629001140594,-0.1241582632064819,-0.0061086476780474,32.85534326171876
1766000052940819700,35.16181982421875,-0.28504478931427,-0.1298087686300277,-0.0056504993699491,32.87412329101563
1766000052959599400,35.18059936523437,-0.3077994883060455,-0.1372918635606765,0.002901607658714,32.89290283203125
1766000052978379300,35.19937915039063,-0.3215439617633819,-0.1672242283821106,0.0190895237028598,32.9116826171875
1766000052997159000,35.218158935546874,-0.325972706079483,-0.2136499583721161,0.0421496704220771,32.93046240234375
1766000053015938600,35.2369384765625,-0.3305542171001434,-0.277790755033493,0.0720820426940918,32.949241943359375
1766000053034718200,35.25571826171875,-0.3294851779937744,-0.3390299379825592,0.1038470119237899,32.96802172851562
1766000053053498000,35.274498046875,-0.3264308571815491,-0.3976729810237884,0.1482874304056167,32.98680151367188
1766000053072277800,35.29327783203125,-0.3113119602203369,-0.4653262495994568,0.2067777216434478,33.005581298828126
1766000053091057700,35.3120576171875,-0.2876409590244293,-0.5270236134529114,0.2860374450683594,33.024361083984374
1766000053109837300,35.33083740234375,-0.2532798051834106,-0.5537489056587219,0.3952295184135437,33.04314086914062
1766000053128617000,35.34961694335937,-0.1973856836557388,-0.5157225728034973,0.5681042671203613,33.06192041015625
1766000053147396600,35.36839672851563,-0.0915533602237701,-0.481361448764801,0.8300125002861023,33.0807001953125
1766000053166176500,35.387176513671875,0.0762817412614822,-0.4094321131706238,1.1979057788848877,33.09947998046875
1766000053184956200,35.4059560546875,0.3039815723896026,-0.3017672002315521,1.6537636518478394,33.118259521484376
1766000053203735800,35.42473583984375,0.581008791923523,-0.3807214796543121,2.0578508377075195,33.137039306640624
1766000053222515700,35.443515625,0.9050725102424622,-0.8173370957374573,2.1757476329803467,33.15581909179688
1766000053241295400,35.46229541015625,1.0472513437271118,-1.2173007726669312,1.8170173168182373,33.17459887695313
1766000053260075000,35.48107495117188,0.9977712631225586,-1.498756766319275,1.4440842866897583,33.19337841796875
1766000053278855000,35.49985498046875,0.9105703234672546,-2.0598361492156982,0.7533490061759949,33.21215844726562
1766000053297634600,35.51863452148437,1.0622174739837646,-2.591593742370605,-0.5360338687896729,33.23093798828125
1766000053316414200,35.53741430664063,1.4282782077789309,-2.425438642501831,-1.9811872243881223,33.2497177734375
1766000053335194000,35.55619409179688,1.2583050727844238,-2.758054494857788,-3.2507169246673584,33.26849755859376
1766000053353973800,35.57497387695312,0.6222421526908875,-3.700618743896485,-4.2375688552856445,33.28727734375
1766000053372753400,35.59375341796875,0.3059668838977813,-4.159225463867188,-4.883405685424805,33.306056884765624
1766000053391533000,35.612532958984374,0.2079230993986129,-4.131125926971436,-4.4944376945495605,33.32483642578125
1766000053410313000,35.63131298828125,0.3415497839450836,-3.6147160530090336,-4.112952709197998,33.34361645507813
1766000053429092600,35.65009252929688,0.1643989831209182,-3.098306179046631,-4.349509716033936,33.36239599609375
1766000053447872300,35.668872314453125,-0.1776852905750274,-1.1365139484405518,-3.937634468078613,33.38117578125
1766000053466652200,35.68765209960937,-0.3041343092918396,2.956585645675659,-3.014464855194092,33.39995556640625
1766000053485431800,35.70643188476563,-1.0501528978347778,0.9100358486175537,-2.5214970111846924,33.4187353515625
1766000053504211500,35.72521142578125,-1.5338051319122314,2.956585645675659,-1.2629629373550415,33.43751489257812
1766000053522991400,35.743991455078124,-1.5105922222137451,2.3350305557250977,-0.939357340335846,33.456294921875
1766000053541771000,35.76277099609375,-1.0464876890182495,1.3128247410058975,-0.7163916826248169,33.475074462890625
1766000053560550700,35.781550537109375,0.0187077336013317,2.3350305557250977,-0.0497854799032211,33.49385400390625
1766000053579330300,35.80033032226562,0.3458258211612701,0.2906189262866974,0.4749473631381988,33.5126337890625
1766000053598110200,35.81911010742188,0.7517454624176025,-0.3970620930194855,0.81810063123703,33.53141357421875
1766000053616889900,35.837889892578126,1.0768781900405884,-0.735633909702301,1.152854561805725,33.550193359375
1766000053635669500,35.85666943359375,1.1590396165847778,-0.9224058389663696,1.4928008317947388,33.56897290039063
1766000053654449400,35.87544946289062,1.1536945104599,-0.8274163603782654,1.8040363788604736,33.5877529296875
1766000053673229000,35.89422900390625,1.1129192113876345,-0.5378664135932922,2.050825834274292,33.60653247070312
1766000053692008700,35.9130087890625,1.0458768606185913,-0.1350011229515075,2.261268615722656,33.62531225585938
1766000053710788400,35.93178833007813,0.9785290360450744,0.2049451321363449,2.4523167610168457,33.644091796875
1766000053729568300,35.950568359375,0.918664276599884,0.4780016839504242,2.592510223388672,33.66287182617187
1766000053748348000,35.96934790039062,0.8603267073631287,0.7199041247367859,2.711017847061157,33.6816513671875
1766000053767127600,35.98812744140625,0.7581595778465271,0.9335541129112244,2.7647740840911865,33.700430908203124
1766000053785907500,36.006907470703126,0.6456077098846436,1.0713040828704834,2.783405303955078,33.7192109375
1766000053804687000,36.02568701171875,0.5724566578865051,1.1212422847747805,2.7951645851135254,33.73799047851563
1766000053823466800,36.044466796875,0.5055669546127319,1.0421353578567505,2.760192394256592,33.756770263671875
1766000053842246400,36.06324633789063,0.4354702234268188,0.8927788734436035,2.6725335121154785,33.77554980468751
1766000053861026300,36.0820263671875,0.3653734922409057,0.7522799968719482,2.530507326126098,33.79432983398438
1766000053879806000,36.10080590820313,0.2922224402427673,0.5913171172142029,2.33579421043396,33.813109375
1766000053898585600,36.119585693359376,0.2302196621894836,0.416304349899292,2.1032073497772217,33.83188916015625
1766000053917365500,36.13836547851562,0.1753945499658584,0.249690979719162,1.8461860418319704,33.85066894531249
1766000053936145200,36.15714526367187,0.1359937787055969,0.0456621423363685,1.5613703727722168,33.86944873046875
1766000053954924800,36.1759248046875,0.0924696549773216,-0.1719584316015243,1.257770538330078,33.88822827148437
1766000053973704400,36.19470434570312,0.0248163808137178,-0.3294088244438171,0.9297361969947816,33.9070078125
1766000053992484400,36.213484375,-0.0746018588542938,-0.3923279047012329,0.5760455131530762,33.925787841796875
1766000054011264000,36.232263916015626,-0.2062432169914245,-0.3596466481685638,0.1936441361904144,33.9445673828125
1766000054030043600,36.251043701171874,-0.3519344627857208,-0.1195767819881439,-0.2481638193130493,33.96334716796875
1766000054048823300,36.2698232421875,-0.4957931339740753,0.215482547879219,-0.7994692921638489,33.982126708984374
1766000054067603200,36.28860327148438,-0.5782598853111267,0.4185950756072998,-1.3197733163833618,34.00090673828125
1766000054086382800,36.3073828125,-0.4313468933105469,0.3167333900928497,-1.2418880462646484,34.01968627929688
1766000054105162500,36.32616259765625,0.0208457615226507,0.233961209654808,-1.1713331937789917,34.038466064453125
1766000054123942400,36.3449423828125,0.3569740951061249,-0.0566577091813087,-1.2095122337341309,34.05724584960937
1766000054142722000,36.36372216796875,0.2693150043487549,-0.2596175372600555,-1.0462586879730225,34.07602563476563
