time,seconds_elapsed,z,y,x,t
1766000045142516500,27.3635166015625,-0.2679336071014404,-0.0497598648071289,-0.1378171443939209,25.089905029296876
1766000045161296400,27.38229638671875,-0.2464461326599121,-0.0063552856445312,-0.2689962983131408,25.108684814453124
1766000045180076300,27.401076171875,-0.2090363502502441,-0.0592784881591796,-0.2402839064598083,25.127464599609375
1766000045198856200,27.419856201171875,-0.2575368881225586,-0.1224365234375,-0.0621517300605773,25.14624462890625
1766000045217635800,27.4386357421875,-0.2304267883300781,-0.0543708801269531,-0.0370919108390808,25.165024169921875
1766000045236415700,27.45741577148437,-0.1353194713592529,0.1660852432250976,-0.054175317287445,25.183804199218745
1766000045255195600,27.476195556640626,0.0457229614257812,0.1549825668334961,0.1405621767044067,25.202583984375
1766000045273975300,27.494975341796877,0.1662566661834716,0.0294198989868164,0.1445317864418029,25.22136376953125
1766000045292755200,27.513755126953125,0.2820854187011719,-0.0331649780273437,0.0731346011161804,25.2401435546875
1766000045311535000,27.53253515625,0.3046321868896484,0.001479148864746,0.0590944290161132,25.258923583984373
1766000045330315000,27.55131494140625,0.1899724006652832,-0.0622329711914062,-0.017884612083435,25.277703369140625
1766000045349094700,27.5700947265625,-0.0132358074188232,-0.1376972198486328,-0.0827959179878234,25.296483154296872
1766000045367874600,27.58887451171875,-0.1916432380676269,-0.0670118331909179,-0.1329194903373718,25.315262939453124
1766000045424214000,27.645214111328126,-0.8177528381347656,0.0658521652221679,-0.9312872886657716,25.3716025390625
1766000045452383700,27.6733837890625,-0.3615565299987793,0.0563564300537109,0.1756623983383178,25.399772216796872
1766000045471163600,27.69216357421875,-0.0673325061798095,0.0323448181152343,0.5305538177490234,25.418552001953124
1766000045489943600,27.710943603515624,0.315617561340332,0.0780487060546875,0.5469056367874146,25.437332031249998
1766000045508723200,27.72972314453125,0.7502427101135254,0.0884428024291992,0.5387030839920044,25.456111572265623
1766000045527503000,27.748503173828126,1.1547296047210691,0.096719741821289,0.3997732996940613,25.4748916015625
1766000045546283000,27.76728295898437,1.8016788959503172,0.2760457992553711,-0.1586695909500122,25.493671386718745
1766000045565062700,27.786062744140622,2.821550130844116,0.5659074783325195,-0.6699647903442383,25.512451171874996
1766000045583842600,27.804842529296877,3.3535282611846924,0.8950996398925781,-1.805172324180603,25.53123095703125
1766000045602622500,27.82362255859375,4.291429996490479,0.8256101608276367,-3.0544919967651367,25.550010986328125
1766000045621402000,27.842402099609377,4.680217742919922,0.750981330871582,-4.261791706085205,25.56879052734375
1766000045640182000,27.86118212890625,4.26470422744751,0.8738784790039062,-4.169782638549805,25.587570556640625
1766000045658962000,27.8799619140625,3.245147228240967,1.4217462539672852,-3.288832187652588,25.606350341796873
1766000045677741600,27.898741455078124,1.9738141298294067,1.5789127349853516,-1.9553738832473757,25.625129882812498
1766000045696521500,27.917521484375,0.964629888534546,1.859440803527832,-0.9747820496559144,25.643909912109375
1766000045715301400,27.93630126953125,0.7973446846008301,2.220731735229492,0.1710983216762542,25.662689697265623
1766000045734081000,27.9550810546875,-0.275864839553833,2.1277027130126958,2.2700793743133545,25.681469482421875
1766000045752861000,27.97386083984375,-1.378068447113037,1.388872146606445,3.133596897125244,25.700249267578123
1766000045771640800,27.992640869140622,-2.1110782623291016,0.5223398208618164,2.732306480407715,25.719029296874997
1766000045790420700,28.011420654296877,-1.2443768978118896,-0.2907934188842773,3.0449864864349365,25.73780908203125
1766000045809200400,28.030200439453125,-1.0788719654083252,-0.3057270050048828,2.503852844238281,25.7565888671875
1766000045827980300,28.048980224609377,-1.058241367340088,-0.0006618499755859,1.9727563858032229,25.77536865234375
1766000045846760200,28.06776025390625,-1.4385714530944824,0.6727619171142578,1.881171464920044,25.794148681640625
1766000045865539800,28.08653979492188,-0.966899871826172,1.390411376953125,1.5429973602294922,25.812928222656254
1766000045884319700,28.10531982421875,4.070528030395508,0.1705141067504882,1.339488863945007,25.831708251953124
1766000045903099600,28.124099609375,-10.511237144470217,-2.348962783813477,-1.7478752136230469,25.850488037109375
1766000045921879300,28.14287939453125,-2.209162473678589,2.050987243652344,-4.565210819244385,25.869267822265623
1766000045940659200,28.1616591796875,-1.0987459421157837,2.9658126831054688,2.963676929473877,25.888047607421875
1766000045959439000,28.18043920898437,3.2553136348724365,-3.187215805053711,5.551759719848633,25.906827636718745
1766000045978218800,28.19921875,1.8133279085159304,-1.192434310913086,5.332519054412842,25.925607177734374
1766000045996998700,28.21799853515625,-0.4098861217498779,0.1302595138549804,3.48356032371521,25.944386962890626
1766000046015778600,28.236778564453125,-1.3248662948608398,-0.9485349655151368,0.1377031058073043,25.9631669921875
1766000046034558200,28.25555810546875,-1.9049537181854248,-1.1662797927856443,-3.160024642944336,25.981946533203125
1766000046053338000,28.274338134765625,-2.077589273452759,-2.032163619995117,-2.162889003753662,26.0007265625
1766000046072118000,28.29311791992188,-2.754858493804932,-2.0871152877807617,-0.3378069400787353,26.019506347656254
1766000046090897700,28.311897705078124,-3.19571304321289,-1.762117862701416,0.832474410533905,26.038286132812498
1766000046109677600,28.330677490234372,-3.2980334758758545,-2.1061220169067383,1.0013713836669922,26.057065917968746
1766000046128457500,28.34945751953125,-3.3664567470550537,-2.4414196014404297,0.4301201701164245,26.075845947265623
1766000046147237000,28.368237060546875,-3.2123751640319824,-2.366835594177246,-0.3215477466583252,26.09462548828125
1766000046166017000,28.38701708984375,-2.911726713180542,-2.016354560852051,-0.9778395295143129,26.113405517578123
1766000046184797000,28.405796875,-2.843942880630493,-1.7620248794555664,-1.2262508869171145,26.132185302734374
1766000046203576600,28.42457666015625,-2.842273473739624,-1.6400556564331057,-1.1919361352920532,26.150965087890626
1766000046222356500,28.4433564453125,-2.503234624862671,-1.4773674011230469,-1.1081451177597046,26.169744873046874
1766000046241136400,28.462136474609373,-2.282496213912964,-1.349996566772461,-1.1411054134368896,26.188524902343747
1766000046259916000,28.480916015625,-2.1042494773864746,-1.0566320419311523,-1.5729825496673584,26.207304443359373
1766000046278696000,28.49969604492188,-1.998286724090576,-0.8177757263183594,-1.485332489013672,26.226084472656254
1766000046297475800,28.518475830078124,-1.825223684310913,-0.6726007461547852,-1.0980628728866575,26.244864257812498
1766000046316255500,28.53725537109375,-1.9000918865203855,-0.4127626419067383,-0.8800141215324402,26.263643798828124
1766000046335035400,28.556035400390623,-1.8393864631652832,-0.099283218383789,-1.0059906244277954,26.282423828124998
1766000046353815300,28.574815185546875,-1.769036054611206,0.1008825302124023,-1.1875041723251345,26.30120361328125
1766000046372595000,28.593594970703126,-1.8742833137512207,0.0500087738037109,-1.010941505432129,26.3199833984375
1766000046391374800,28.61237475585937,-1.9562339782714844,-0.0399494171142578,-0.958091139793396,26.338763183593745
1766000046410154500,28.631154541015626,-1.878896713256836,-0.1505336761474609,-0.9604593515396118,26.35754296875
1766000046428934400,28.649934326171877,-1.82374906539917,-0.2012357711791992,-0.9372670650482178,26.37632275390625
1766000046447714300,28.66871435546875,-1.7542448043823242,-0.1830482482910156,-0.95453542470932,26.395102783203125
1766000046466494000,28.687493896484376,-1.4889130592346191,-0.2207012176513672,-0.5114712119102478,26.41388232421875
1766000046485273900,28.70627392578125,-1.2982711791992188,-0.1815447807312011,0.1125534176826477,26.432662353515624
1766000046504053800,28.7250537109375,-1.1648259162902832,-0.0886392593383789,0.671343207359314,26.451442138671876
1766000046522833400,28.74383349609375,-1.0944137573242188,0.1664495468139648,1.1788617372512815,26.470221923828124
1766000046541613300,28.76261328125,-0.5412139892578125,0.3710155487060547,1.544194221496582,26.489001708984375
1766000046560393200,28.781393310546875,-2.750143527984619,1.5584912300109863,1.6367855072021484,26.50778173828125
1766000046579172900,28.8001728515625,-0.017669677734375,3.6649670600891113,1.8357120752334597,26.526561279296875
1766000046597952800,28.81895288085937,2.168855905532837,3.301112174987793,-0.0020871460437774,26.545341308593745
1766000046616732400,28.837732421875,0.7331099510192871,4.119189262390137,-1.74178147315979,26.564120849609374
1766000046635512300,28.85651220703125,2.6055026054382324,3.320761203765869,-3.203745126724243,26.582900634765625
1766000046654292200,28.875292236328125,3.2503013610839844,3.3404102325439453,-3.3806612491607666,26.6016806640625
1766000046673072000,28.894072021484376,2.650489330291748,0.8451261520385742,-3.617701292037964,26.62046044921875
1766000046691851800,28.912851806640624,1.4976556301116943,0.7360258102416992,-3.145345687866211,26.639240234375
1766000046710631700,28.93163159179688,0.3073482513427734,1.2709760665893557,-1.556671977043152,26.658020019531254
1766000046729411300,28.950411376953124,0.1812372207641601,1.064896583557129,-0.8733751177787781,26.676799804687498
1766000046748191200,28.96919116210937,0.5935835838317871,0.1018495559692382,-0.8575522899627686,26.695579589843746
1766000046766971100,28.98797119140625,2.5270962715148926,-0.799586296081543,-0.4492324888706207,26.714359619140623
1766000046785750800,29.006750732421875,1.8417439460754397,-0.8032903671264648,0.8922628164291382,26.73313916015625
1766000046804530700,29.02553076171875,1.056875705718994,-0.3010721206665039,1.38258159160614,26.751919189453123
1766000046823310300,29.04431030273437,0.2763595581054687,-0.2144250869750976,2.4007933139801025,26.770698730468744
1766000046842090200,29.06309033203125,-0.2689759731292724,-0.3647146224975586,2.835034847259521,26.789478759765625
1766000046860870100,29.0818701171875,-0.9226844310760498,-0.4060297012329101,2.3309519290924072,26.808258544921873
1766000046879649800,29.10064990234375,-1.1311757564544678,-0.336130142211914,1.4532777070999146,26.827038330078125
1766000046898429700,29.1194296875,-1.063084602355957,-0.258096694946289,0.5437974333763123,26.845818115234373
1766000046917209600,29.13820971679688,-0.8881633281707764,-0.2906341552734375,-0.0851857960224151,26.864598144531254
1766000046935989200,29.1569892578125,-0.798947811126709,0.031991958618164,-0.500524640083313,26.883377685546876
1766000046954769200,29.17576904296875,-0.1265192031860351,0.2831335067749023,-0.9424585103988647,26.902157470703123
1766000046973549000,29.194549072265627,0.498291015625,0.0696611404418945,-0.9432612061500548,26.9209375
1766000046992328700,29.21332861328125,0.6775052547454834,0.0049648284912109,-1.1686373949050903,26.939717041015623
1766000047011108600,29.23210864257813,0.7280610799789429,-0.1223773956298828,-0.5850582718849182,26.958497070312504
1766000047029888300,29.25088818359375,1.3680944442749023,-0.3266553878784179,0.6248503923416138,26.977276611328126
1766000047048668200,29.269668212890625,2.0917489528656006,-0.2999916076660156,1.2093141078948977,26.996056640625
1766000047067448000,29.288447998046877,2.7509164810180664,-0.3421382904052734,0.1287217289209365,27.01483642578125
1766000047086227700,29.307227783203125,2.862861394882202,-0.2220735549926757,-0.9567632675170898,27.0336162109375
1766000047105007600,29.326007568359376,2.133671522140503,0.1301698684692382,-1.364735126495361,27.05239599609375
1766000047123787300,29.344787353515624,1.0373939275741575,0.7275161743164062,-0.8956605792045593,27.07117578125
1766000047142567200,29.36356713867188,0.8600772619247437,0.5590839385986328,-0.2405531257390976,27.089955566406253
1766000047161347000,29.38234716796875,0.5688066482543945,0.0433025360107421,0.6804941296577454,27.108735595703124
