time,seconds_elapsed,z,y,x,t
1766000060171002000,42.392002197265626,0.3875173330307007,0.6814196705818176,2.2372922897338867,40.1043056640625
1766000060189781800,42.41078173828125,0.3409388959407806,0.8717040419578552,2.3423609733581543,40.12308520507813
1766000060208561400,42.4295615234375,0.2945131957530975,1.0810779333114624,2.406043767929077,40.141864990234374
1766000060227341000,42.448341064453125,0.2538906633853912,1.2328778505325315,2.427881956100464,40.16064453125
1766000060246120700,42.46712060546875,0.2343430072069168,1.2869393825531006,2.4158174991607666,40.179424072265626
1766000060264900400,42.485900390625,0.2627482116222381,1.2270746231079102,2.372598886489868,40.19820385742187
1766000060283680000,42.504679931640624,0.2795470058917999,1.0228930711746216,2.2985315322875977,40.2169833984375
1766000060302459600,42.52345971679687,0.2719111740589142,0.7754928469657898,2.202167510986328,40.23576318359375
1766000060321239300,42.5422392578125,0.2308305352926254,0.5212203860282898,2.0657920837402344,40.25454272460937
1766000060340019000,42.56101904296875,0.1753945499658584,0.3289506733417511,1.8921536207199097,40.27332250976563
1766000060358798600,42.57979858398438,0.1330921649932861,0.1846338808536529,1.6954551935195925,40.29210205078125
1766000060377578200,42.598578125,0.076129026710987,0.0671951249241828,1.4840959310531616,40.31088159179688
1766000060396358000,42.61735791015625,0.0032833982259035,-0.0421496704220771,1.263115644454956,40.329661376953126
1766000060415137500,42.63613745117188,-0.0857501402497291,-0.1498145908117294,1.04076087474823,40.34844091796875
1766000060433917200,42.65491723632813,-0.1973856836557388,-0.2325867712497711,0.7942769527435303,40.36722070312501
1766000060452696800,42.67369677734375,-0.3313177824020386,-0.2296851575374603,0.5031998753547668,40.386000244140625
1766000060471476500,42.6924765625,-0.4475347995758056,-0.1371391415596008,0.1727220118045807,40.40478002929687
1766000060490256100,42.71125610351562,-0.5190060138702393,0.1430950760841369,-0.2906189262866974,40.4235595703125
1766000060509035800,42.73003588867188,-0.5483275055885315,0.5232056975364685,-0.7727439403533936,40.442339355468754
1766000060527815400,42.7488154296875,-0.5979602336883545,0.7736602425575256,-1.2539526224136353,40.46111889648437
1766000060546595000,42.76759497070312,-0.5842158198356628,0.3996582925319671,-1.2008074522018433,40.4798984375
1766000060574764500,42.7957646484375,0.0232892204076051,-0.2573267817497253,-1.012661099433899,40.50806811523437
1766000060593544200,42.81454418945312,0.0657443255186081,-0.9732602834701538,-0.8799507021903992,40.52684765625
1766000060612323800,42.83332373046875,0.0113773569464683,-1.387273907661438,-0.7206677198410034,40.545627197265624
1766000060631103500,42.852103515625,0.0394771359860897,-1.472795009613037,-0.5830704569816589,40.56440698242187
1766000060659273000,42.88027294921875,0.1703549176454544,-1.0971131324768066,-0.5045742988586426,40.592576416015625
1766000060678052600,42.899052490234375,0.2390772104263305,-0.8098539710044861,-0.3929387629032135,40.61135595703125
1766000060696832300,42.91783227539062,0.2186132371425628,-0.64278244972229,-0.1989891976118087,40.6301357421875
1766000060715612000,42.93661181640625,0.1905134469270706,-0.5560396909713745,-0.0378736145794391,40.648915283203124
1766000060734391600,42.9553916015625,0.227318063378334,-0.3764454126358032,0.1676823794841766,40.66769506835938
1766000060753171200,42.97417114257812,0.2693150043487549,-0.1484401375055313,0.4450149834156036,40.686474609375
1766000060771950800,42.99295092773438,0.3111592531204223,0.0113009987398982,0.713184654712677,40.70525439453125
1766000060790730500,43.01173046875,0.414089947938919,0.1496618688106537,0.9673043489456176,40.72403393554688
1766000060809510100,43.03051025390625,0.5416079759597778,0.2043342739343643,1.1774418354034424,40.742813720703126
1766000060828289800,43.04928979492188,0.6657662391662598,0.1165224537253379,1.2719731330871582,40.76159326171876
1766000060847069400,43.0680693359375,0.8435279130935669,-0.0696385875344276,1.2023346424102783,40.78037280273438
1766000060865849000,43.08684912109375,1.0000619888305664,-0.3807214796543121,1.0329723358154297,40.799152587890624
1766000060894018600,43.1150185546875,0.9835686683654784,-0.9369138479232788,0.5978838801383972,40.82732202148438
1766000060912798200,43.13379809570313,0.968297004699707,-1.1946988105773926,0.1482874304056167,40.8461015625
1766000060931577900,43.152577880859376,1.0428224802017212,-1.3605486154556274,-0.5806269645690918,40.86488134765625
1766000060950357500,43.171357421875,0.9398918151855468,-1.612377643585205,-1.3889538049697876,40.883660888671876
1766000060978527000,43.19952685546875,0.4324159026145935,-2.188881158828736,-2.5080580711364746,40.91183032226562
1766000060997306600,43.218306640625,0.2508363425731659,-2.341444730758667,-3.120755434036255,40.93061010742188
1766000061016086300,43.23708618164063,0.29374960064888,-2.2501204013824463,-3.6080727577209473,40.9493896484375
1766000061034866000,43.25586596679688,0.4647917449474334,-1.7145447731018066,-4.026209831237793,40.96816943359376
1766000061053645600,43.2746455078125,0.6155226230621338,-1.0315978527069092,-4.32904577255249,40.986948974609376
1766000061072425200,43.29342529296875,0.7500655651092529,-0.6698132157325745,-4.41731595993042,41.005728759765624
1766000061091204600,43.31220458984375,0.8129846453666687,-0.7493783831596375,-4.257269382476807,41.02450805664063
1766000061109984300,43.330984375,0.1828776448965072,-1.3965896368026731,-2.030819892883301,41.043287841796875
1766000061138153700,43.35915380859375,-0.075212724506855,1.4173589944839478,-2.187506675720215,41.07145727539063
1766000061156933400,43.37793334960938,1.0261764526367188,-0.1359174102544784,-1.884517788887024,41.090236816406254
1766000061175713000,43.396713134765626,0.7975603342056274,-0.1490510106086731,-1.5638138055801392,41.1090166015625
1766000061194492700,43.41549267578125,0.6868410706520081,-0.3071122765541076,-1.0181589126586914,41.12779614257813
1766000061213272300,43.43427221679688,0.6118574142456055,-0.4460839927196502,-0.4885390996932983,41.14657568359375
1766000061241441800,43.46244189453125,0.2717584669589996,1.3168717622756958,0.1498145908117294,41.17474536132813
1766000061269611300,43.490611328125,0.0119882216677069,2.4778201580047607,0.6362156867980957,41.202914794921874
1766000061297780700,43.51878076171875,-0.1663842946290969,2.395200729370117,0.9934188723564148,41.23108422851563
1766000061316560400,43.53756030273438,-0.2447277009487152,1.9718714952468872,1.1334595680236816,41.24986376953125
1766000061335340000,43.55634008789063,-0.2361755967140197,1.6352850198745728,1.2768601179122925,41.26864355468751
1766000061363509500,43.58450952148438,-0.2647335231304168,1.2956441640853882,1.458897829055786,41.29681298828125
1766000061382289200,43.6032890625,-0.2980256676673889,1.254258155822754,1.56350839138031,41.31559252929687
1766000061401068800,43.62206884765625,-0.2905425727367401,1.3484840393066406,1.691789984703064,41.33437231445313
1766000061419848200,43.64084814453125,-0.2583194375038147,1.4358376264572144,1.8144210577011108,41.35315161132812
1766000061438627800,43.6596279296875,-0.2172387838363647,1.5378520488739014,1.8955134153366089,41.37193139648438
1766000061457407500,43.67840747070313,-0.1705076247453689,1.6490294933319092,1.95843243598938,41.3907109375
1766000061476187100,43.697187255859376,-0.1135444939136505,1.7029383182525637,2.000582218170166,41.40949072265625
1766000061494966800,43.715966796875,-0.0574976466596126,1.7470732927322388,2.0184500217437744,41.42827026367188
1766000061513746400,43.73474633789063,0.0051159923896193,1.729663610458374,2.005927324295044,41.4470498046875
1766000061532526000,43.75352612304688,0.086513727903366,1.6201660633087158,1.9718714952468872,41.46582958984376
1766000061551305700,43.7723056640625,0.1874591261148452,1.3597849607467651,1.9013166427612305,41.484609130859376
1766000061570085400,43.79108544921875,0.3348302543163299,1.046105980873108,1.8147265911102293,41.50338891601562
1766000061588865000,43.80986499023437,0.4446332156658172,0.672104001045227,1.7414227724075315,41.52216845703124
1766000061617034500,43.83803442382813,0.5263363718986511,0.1466075479984283,1.6369649171829224,41.550337890625
1766000061635814100,43.856814208984375,0.5063305497169495,-0.0537560991942882,1.574962139129639,41.56911767578125
1766000061654593800,43.87559375,0.4406625926494598,-0.1455385386943817,1.5033382177352903,41.587897216796875
1766000061673373400,43.89437353515625,0.3432296514511108,-0.1658497899770736,1.3936879634857178,41.60667700195312
1766000061692152800,43.91315283203125,0.2392299175262451,-0.1493564397096634,1.2536472082138062,41.62545629882813
1766000061710932500,43.93193237304688,0.1659261435270309,-0.1049160286784172,1.060308575630188,41.64423583984375
1766000061729712000,43.950712158203125,0.0930805206298828,-0.0125227281823754,0.8399390578269958,41.663015625
1766000061748491800,43.96949169921875,0.0208457615226507,0.0696385875344276,0.5862774848937988,41.681795166015625
1766000061767271400,43.988271484375,-0.0749072954058647,0.1650862097740173,0.2739728391170501,41.70057495117187
1766000061786051000,44.00705102539062,-0.2178496569395065,0.539851725101471,-0.1849393099546432,41.7193544921875
1766000061804830700,44.02583081054688,-0.5090794563293457,0.7388409376144409,-0.620333194732666,41.738134277343754
1766000061823610400,44.0446103515625,-0.5614610910415649,0.150883600115776,-0.4503600597381592,41.75691381835937
1766000061842390000,44.06339013671875,0.0133626665920019,-0.0297796577215194,-0.1230892539024353,41.77569360351563
1766000061861169700,44.08216967773438,0.3061196208000183,-0.4196641147136688,0.1159115955233573,41.79447314453125
1766000061879949300,44.10094921875,0.3655261993408203,-0.6082686185836792,0.3300196826457977,41.81325268554688
1766000061898729000,44.11972900390625,0.2456440031528473,-0.453108936548233,0.4503600597381592,41.832032470703126
1766000061917508600,44.13850854492188,0.2725220620632171,-0.3946186602115631,0.569173276424408,41.85081201171876
1766000061936288300,44.15728833007813,0.3774380683898926,-0.3601047992706299,0.6830995678901672,41.86959179687501
1766000061955068000,44.17606787109375,0.3979020416736603,-0.3875937163829803,0.7307469844818115,41.888371337890625
1766000061973847600,44.19484765625,0.3499491512775421,-0.4373791813850403,0.717307984828949,41.90715112304687
1766000062002016800,44.22301684570313,0.3207803666591644,-0.4370737373828888,0.6386591196060181,41.935320312500004
1766000062039576000,44.260576171875,0.3621664643287658,-0.5519163012504578,0.4908298552036285,41.97287963867188
1766000062058355700,44.27935571289063,0.3659843504428863,-0.6155989766120911,0.3814850449562073,41.9916591796875
1766000062077135400,44.29813525390625,0.3742310404777527,-0.6281217336654663,0.2544251680374145,42.01043872070313
1766000062095915000,44.3169150390625,0.3873646259307861,-0.5134318470954895,0.1125518381595611,42.029218505859376
1766000062114694700,44.335694580078126,0.4111883640289306,-0.1852447390556335,-0.0571158565580844,42.047998046875
1766000062133474300,44.35447436523437,0.3278053104877472,0.1157588735222816,-0.3176496922969818,42.06677783203124
1766000062171033600,44.39203369140625,-0.1375209391117096,0.4445568323135376,-0.8610138893127441,42.10433715820312
1766000062189813000,44.41081298828125,-0.2473238706588745,0.351705402135849,-1.0777181386947632,42.123116455078126
1766000062208592600,44.42959252929688,-0.1555414497852325,0.1409570425748825,-1.2675443887710571,42.14189599609376
1766000062227372300,44.44837231445312,0.0805577933788299,-0.0736092031002044,-1.446985960006714,42.16067578124999
1766000062255541800,44.47654174804688,0.0260381121188402,-0.4842630624771118,-1.5757256746292114,42.18884521484375
1766000062274321400,44.4953212890625,-0.2131154537200927,-0.8633046746253967,-1.7484476566314695,42.20762475585938
1766000062293101000,44.51410107421875,-0.1277471035718917,-1.2340996265411377,-2.199571371078491,42.226404541015626
