time,seconds_elapsed,z,y,x,t
1766000035161011500,17.382011474609374,0.2663874626159668,0.8127827644348145,0.2821141481399536,15.10839990234375
1766000035179791400,17.400791259765626,0.0512514114379882,0.6420540809631348,0.6756058931350708,15.127179687500002
1766000035198571300,17.4195712890625,-0.3497920036315918,0.6251282691955566,1.02765953540802,15.145959716796876
1766000035217351200,17.43835107421875,-0.3918700218200683,0.4525742530822754,1.1022063493728638,15.164739501953127
1766000035236131000,17.457131103515625,-0.5372824668884277,1.5579304695129397,0.7527319192886353,15.18351953125
1766000035254910700,17.47591064453125,1.8107578754425049,1.6092424392700195,-0.2652441561222076,15.202299072265626
1766000035273691000,17.49469091796875,1.370844841003418,0.9326467514038086,-0.875697672367096,15.221079345703126
1766000035292470800,17.513470703125,0.2909064292907715,1.1259040832519531,-0.9162203669548036,15.239859130859378
1766000035311250700,17.532250732421875,-0.1081447601318359,1.6552152633666992,-0.5961739420890808,15.258639160156251
1766000035330030600,17.551030517578123,0.2607507705688476,1.1072006225585938,-0.6961967349052429,15.2774189453125
1766000035348810500,17.569810546875,0.4010934829711914,0.5792989730834961,-1.361569046974182,15.296198974609377
1766000035367590100,17.588590087890626,0.4638237953186035,1.277216911315918,-1.648964524269104,15.314978515625002
1766000035386370000,17.6073701171875,1.0717577934265137,2.2695512771606445,-1.7026389837265017,15.333758544921876
1766000035405150000,17.62614990234375,2.130974292755127,2.6308412551879883,-2.40233850479126,15.352538330078128
1766000035423929900,17.644929931640625,3.144774913787842,3.040825843811035,-3.5048274993896484,15.371318359375001
1766000035442710000,17.6637099609375,3.920694589614868,3.661651611328125,-4.350136756896973,15.390098388671875
1766000035461490000,17.682489990234377,4.272594928741455,3.76667594909668,-4.505182266235352,15.408878417968753
1766000035480269800,17.701269775390625,2.9499878883361816,3.5856618881225586,-3.1006205081939697,15.427658203125
1766000035499049500,17.720049560546876,1.6186153888702393,3.4116973876953125,-1.6981815099716189,15.446437988281252
1766000035517829400,17.738829345703124,0.7865114212036133,3.22379207611084,-1.3556379079818726,15.4652177734375
1766000035536609300,17.757609375,1.0264010429382324,2.4489097595214844,-0.7274921536445618,15.483997802734377
1766000035555389200,17.77638916015625,1.0176758766174316,1.064340591430664,0.8891044855117798,15.502777587890625
1766000035574169300,17.79516943359375,0.254730224609375,0.33642578125,2.046868324279785,15.521557861328125
1766000035592949200,17.81394921875,-1.381664752960205,-0.1874146461486816,2.2044427394866943,15.540337646484376
1766000035611729000,17.83272900390625,-0.9706144332885742,0.1637897491455078,3.4484920501708984,15.559117431640624
1766000035630508800,17.8515087890625,1.4284768104553225,1.0369949340820312,2.030982494354248,15.577897216796876
1766000035649288700,17.870288818359374,0.7179279327392578,0.5948772430419922,0.6167765259742737,15.59667724609375
1766000035668068600,17.889068603515625,0.2806653976440429,0.4841814041137695,-0.9716156721115112,15.615457031250001
1766000035686848800,17.907848876953125,-1.2488694190979004,0.3828439712524414,0.0309809334576129,15.6342373046875
1766000035705628700,17.926628662109376,-2.509663343429565,-0.220306396484375,3.0355453491210938,15.653017089843752
1766000035724408300,17.945408203125,-1.084400653839111,-0.9441089630126952,5.338335990905762,15.671796630859378
1766000035743188200,17.964188232421876,-0.671620488166809,-0.5822076797485352,2.6369073390960693,15.690576660156252
1766000035761968000,17.982968017578123,0.9500610828399658,-1.4191579818725586,2.238269329071045,15.7093564453125
1766000035780748000,18.001748046875,-0.2588403224945068,5.348089218139648,-1.012590408325195,15.728136474609377
1766000035799528000,18.02052783203125,0.9738335013389589,0.7423725128173828,-3.516115188598633,15.746916259765625
1766000035818307800,18.03930786132813,1.039625644683838,-1.7017898559570312,-1.2208426594734192,15.765696289062506
1766000035837087700,18.05808764648437,-0.9435343742370604,-3.100900650024414,-1.429094910621643,15.784476074218746
1766000035855867600,18.07686767578125,-2.67043399810791,-3.1795711517333984,5.072164058685303,15.803256103515627
1766000035874647600,18.0956474609375,-3.420922040939331,-2.121530532836914,5.993567943572998,15.822035888671875
1766000035893427500,18.114427490234377,-3.23413348197937,-2.315359592437744,2.048083066940308,15.840815917968753
1766000035912207400,18.133207275390625,-2.4752981662750244,-2.886031150817871,-0.8658610582351685,15.859595703125
1766000035930987300,18.1519873046875,-2.392252922058105,-3.185863494873047,-3.0414321422576904,15.878375732421874
1766000035949767200,18.17076708984375,-2.4798686504364014,-3.5098438262939453,-2.8144373893737797,15.897155517578126
1766000035968547000,18.189547119140624,-2.693902015686035,-3.563178062438965,-0.7921893000602722,15.915935546875
1766000035987327000,18.208326904296875,-2.8586933612823486,-3.233090400695801,0.1253916621208191,15.934715332031251
1766000036006107000,18.22710693359375,-2.7789807319641118,-2.867584705352783,0.4474962949752807,15.953495361328125
1766000036024886800,18.24588671875,-2.602896213531494,-2.500969409942627,0.4842089414596557,15.972275146484376
1766000036043666700,18.264666748046874,-2.4459338188171387,-2.076603889465332,0.1726131439208984,15.99105517578125
1766000036062446600,18.28344653320313,-2.153252124786377,-1.5698986053466797,-0.3806427717208862,16.009834960937503
1766000036081226500,18.3022265625,-1.7299821376800537,-1.1008214950561523,-0.7664567828178406,16.028614990234374
1766000036100006400,18.32100634765625,-1.3874831199645996,-0.5694704055786133,-1.003269910812378,16.047394775390625
1766000036118786300,18.339786376953125,-1.1114616394042969,-0.0941524505615234,-1.0467873811721802,16.0661748046875
1766000036137566200,18.358566162109376,-0.963771104812622,0.3094387054443359,-0.6915145516395569,16.08495458984375
1766000036156346000,18.37734619140625,-0.8159928321838379,0.5524272918701172,-0.3614593744277954,16.103734619140624
1766000036175126000,18.3961259765625,-0.8327069282531738,0.4791631698608398,0.1097009778022766,16.122514404296876
1766000036193906000,18.414906005859372,-0.835350513458252,-0.0398712158203125,0.1347489953041076,16.141294433593746
1766000036212685800,18.433685791015623,-1.0976715087890625,-0.4108695983886719,0.5489925146102905,16.160074218749997
1766000036231465700,18.4524658203125,-1.345198154449463,0.4634742736816406,0.558478057384491,16.178854248046875
1766000036250245600,18.47124560546875,-0.0417976379394531,3.0822553634643555,0.5618828535079956,16.197634033203123
1766000036269025500,18.490025634765622,2.620633125305176,3.109079360961914,-0.4734745621681213,16.216414062499997
1766000036287805400,18.508805419921877,1.5724306106567385,4.052146911621094,-4.572340488433838,16.23519384765625
1766000036306585300,18.52758544921875,1.23614501953125,3.580613136291504,-3.758629083633423,16.253973876953125
1766000036325365200,18.546365234375,2.0460219383239746,4.870609283447266,-0.6643780469894409,16.272753662109373
1766000036344145200,18.56514526367188,2.0026466846466064,1.9433164596557615,-1.765129566192627,16.291533691406254
1766000036362925000,18.583925048828124,1.444815158843994,0.3894796371459961,-2.059401035308838,16.3103134765625
1766000036381705000,18.602705078125,0.5171623229980469,0.1945219039916992,-1.094395399093628,16.329093505859372
1766000036400484900,18.62148486328125,0.130333662033081,0.2052488327026367,-0.3570994436740875,16.347873291015624
1766000036419264800,18.6402646484375,0.2652726173400879,-0.2371702194213867,-0.3811737596988678,16.366653076171875
1766000036438044700,18.65904467773437,0.8002972602844238,-0.6982936859130859,-0.9031689167022704,16.385433105468746
1766000036456824600,18.677824462890623,0.8022267818450928,-0.8693695068359375,-0.6250128746032715,16.404212890624997
1766000036475604500,18.6966044921875,0.2149024009704589,-0.3570461273193359,0.0462450981140136,16.422992919921874
1766000036494384400,18.71538427734375,-0.0871977806091308,0.107309341430664,0.3888041973114013,16.441772705078126
1766000036513164300,18.734164306640626,-0.1005506515502929,-0.017867088317871,0.7933139204978943,16.460552734375
1766000036531944200,18.752944091796877,-0.205946683883667,-0.1420545578002929,0.7978118658065796,16.47933251953125
1766000036550724000,18.77172412109375,-0.2338132858276367,-0.0161304473876953,0.5979510545730591,16.498112548828125
1766000036569504000,18.79050390625,-0.2153437137603759,0.2129373550415039,0.5002857446670532,16.516892333984373
1766000036588284000,18.80928393554688,-0.2643892765045166,0.226959228515625,0.4364838004112243,16.535672363281254
1766000036607063800,18.828063720703124,-0.1987574100494384,-0.0180292129516601,0.2145642042160034,16.5544521484375
1766000036625843700,18.84684375,-0.0655627250671386,-0.184356689453125,0.0952381491661071,16.573232177734376
1766000036644623600,18.86562353515625,0.0851330757141113,-0.2947406768798828,-0.1795387268066406,16.592011962890624
1766000036663403500,18.884403564453127,0.2149899005889892,-0.2023220062255859,-0.3359313607215881,16.6107919921875
1766000036682183400,18.90318334960937,0.3673920631408691,0.0931386947631836,-0.4580035507678985,16.629571777343745
1766000036700963300,18.92196337890625,0.5802295207977295,0.5139617919921875,-0.4185503125190735,16.648351806640623
1766000036719743200,18.9407431640625,0.5062856674194336,0.6934909820556641,-0.316955029964447,16.667131591796874
1766000036738523100,18.959523193359374,0.3911492824554443,0.3015394210815429,-0.2429884076118469,16.685911621093748
1766000036757303000,18.978302978515625,0.1040868759155273,-0.1907529830932617,0.0556808114051818,16.70469140625
1766000036776083000,18.9970830078125,-0.1708569526672363,-0.3198633193969726,0.3006566762924194,16.723471435546873
1766000036794862800,19.01586279296875,-0.3427217006683349,-0.187474250793457,0.341718852519989,16.742251220703125
1766000036813642800,19.034642822265624,-0.4640116691589355,-0.0831298828125,0.282189130783081,16.76103125
1766000036832422700,19.05342260742188,-0.389716625213623,-0.1007108688354492,0.1141576766967773,16.779811035156253
1766000036851202600,19.07220263671875,-0.3024287223815918,-0.1661510467529297,0.1121870279312133,16.798591064453124
1766000036869982500,19.090982421875,-0.1532230377197265,-0.1212434768676757,0.1214735507965087,16.817370849609375
1766000036888762400,19.109762451171875,0.002140998840332,0.0308198928833007,0.0910639762878418,16.83615087890625
1766000036907542300,19.128542236328126,0.0966734886169433,0.1500072479248047,-0.0031925439834594,16.8549306640625
1766000036926322200,19.147322265625,0.2059595584869384,0.1394710540771484,-0.1312779784202575,16.873710693359374
1766000036945102000,19.16610205078125,0.257671594619751,0.0173349380493164,-0.1291636824607849,16.892490478515626
1766000036963882000,19.184882080078125,0.2383654117584228,-0.0286245346069335,-0.0790290236473083,16.9112705078125
1766000036982662000,19.203661865234373,0.1867694854736328,-0.009505271911621,-0.0299951434135437,16.930050292968748
1766000037001441800,19.22244189453125,0.2623982429504394,-0.0013246536254882,0.042484700679779,16.948830322265625
1766000037020221700,19.2412216796875,0.2578487396240234,-0.0146865844726562,0.0770100355148315,16.967610107421873
1766000037039001300,19.26000146484375,0.3005847930908203,0.0160846710205078,0.0967787504196167,16.986389892578124
1766000037057781200,19.27878125,0.3137125968933105,0.063272476196289,0.1228057742118835,17.005169677734376
1766000037076561400,19.2975615234375,0.2776222229003906,0.0735073089599609,0.1961101293563842,17.023949951171875
1766000037095341300,19.31634130859375,0.2182655334472656,0.0602121353149414,0.126247227191925,17.042729736328123
1766000037114121200,19.335121337890627,0.101980447769165,0.064488410949707,0.0858232378959655,17.061509765625
1766000037132901000,19.353901123046874,-0.0707557201385498,0.0423173904418945,0.0253670811653137,17.08028955078125
