time,seconds_elapsed,z,y,x,t
1766000058142798300,40.36379833984375,-0.1795178800821304,-0.2994764447212219,-0.0716238990426063,38.07610180664062
1766000058161578000,40.38257788085937,-0.1839466542005539,-0.2521344423294067,0.0386371985077858,38.09488134765625
1766000058180357600,40.40135766601563,-0.1630245447158813,-0.1928805559873581,0.1733328849077224,38.1136611328125
1766000058199137300,40.42013720703125,-0.1211803033947944,-0.1308777779340744,0.3445277214050293,38.13244067382813
1766000058217917000,40.4389169921875,-0.0584139451384544,-0.0561995580792427,0.537255585193634,38.151220458984376
1766000058236696600,40.457696533203126,0.0242055170238018,0.0111482823267579,0.7359393239021301,38.17
1766000058255476200,40.476476318359374,0.1601229310035705,0.0178677942603826,0.9309579133987428,38.18877978515625
1766000058274256000,40.495255859375,0.3430769443511963,-0.1050687432289123,1.1181880235671997,38.207559326171875
1766000058293035800,40.51403588867188,0.5431351661682129,-0.2982547283172607,1.2600613832473757,38.22633935546875
1766000058311815400,40.5328154296875,0.6633228063583374,-0.4001164436340332,1.2834268808364868,38.24511889648438
1766000058330595000,40.55159497070313,0.6943241953849792,-0.4231765866279602,1.2670862674713137,38.2638984375
1766000058349374700,40.570374755859376,0.7120392322540283,-0.7840449213981628,1.112537503242493,38.28267822265625
1766000058368154400,40.589154296875,0.8575778007507324,-1.6200133562088013,0.6018545031547546,38.30145776367188
1766000058386934000,40.60793408203125,1.3691771030426023,-2.277609348297119,-0.0430659651756286,38.320237548828125
1766000058415103500,40.636103515625,2.116417407989502,-3.0604324340820312,-1.4998257160186768,38.34840698242188
1766000058433883400,40.65488330078125,2.03013277053833,-3.5217881202697754,-2.5581488609313965,38.367186767578126
1766000058452663000,40.6736630859375,1.7775402069091797,-3.929234981536865,-3.4654359817504883,38.385966552734374
1766000058471442700,40.69244262695312,1.655519962310791,-4.107607364654541,-4.038579940795898,38.40474609374999
1766000058490222300,40.71122241210937,1.6623921394348145,-4.019032001495361,-4.167930603027344,38.42352587890625
1766000058509002000,40.730001953125,1.6480368375778198,-3.6364779472351074,-4.11875581741333,38.44230541992187
1766000058527781600,40.74878173828125,1.3800199031829834,-3.2067346572875977,-3.2223117351531982,38.46108520507813
1766000058546561300,40.76756127929688,0.3137554228305816,-1.9187263250350952,-2.288146734237671,38.47986474609375
1766000058565341000,40.7863408203125,-0.101021759212017,0.7322741746902466,-2.334725141525269,38.49864428710938
1766000058584120600,40.80512060546875,0.3432296514511108,0.8510873317718506,-2.067777395248413,38.51742407226563
1766000058602900200,40.82390014648438,0.23648102581501,1.7232495546340942,-1.6754493713378906,38.53620361328125
1766000058621679900,40.84267993164063,-0.0116827888414263,2.144593477249145,-1.3116793632507324,38.55498339843751
1766000058640459800,40.86145971679687,-0.0565813519060611,2.067013740539551,-0.8851430416107178,38.57376318359375
1766000058659239400,40.88023950195313,-0.0377972573041915,1.9417864084243772,-0.5589412450790405,38.59254296875
1766000058678019000,40.89901904296875,-0.0194713156670331,1.7009530067443848,-0.2784016132354736,38.61132250976563
1766000058696798700,40.917798828125,0.1758527010679245,1.398574948310852,0.0629190728068351,38.630102294921876
1766000058715578400,40.93657836914063,0.2389244884252548,1.1673625707626345,0.3924806118011474,38.64888183593751
1766000058734358000,40.95535791015625,0.2001345753669738,1.1688897609710691,0.669965922832489,38.66766137695313
1766000058753137700,40.9741376953125,0.1756999790668487,1.3807071447372437,0.9314160943031312,38.686441162109375
1766000058771917300,40.992917236328125,0.1692859083414077,1.5865685939788818,1.182176113128662,38.705220703125
1766000058790697000,41.01169702148437,0.1211803033947944,1.6606359481811523,1.3924663066864014,38.72400048828125
1766000058809476600,41.0304765625,0.0704785212874412,1.6082541942596436,1.5662572383880615,38.742780029296874
1766000058828256500,41.04925659179688,0.0420733131468296,1.508836030960083,1.7389793395996094,38.76156005859376
1766000058847036200,41.0680361328125,0.0095447618514299,1.346804141998291,1.906814455986023,38.78033959960938
1766000058865815800,41.08681591796875,-0.0358119495213031,1.2330305576324463,2.06594467163086,38.799119384765625
1766000058884595500,41.105595458984375,-0.0952185466885566,1.2145519256591797,2.21881365776062,38.81789892578125
1766000058903375000,41.124375,-0.1575267612934112,1.2651009559631348,2.3400702476501465,38.836678466796876
1766000058922154800,41.14315478515625,-0.1784488707780838,1.412930250167847,2.4190244674682617,38.855458251953124
1766000058940934400,41.161934326171874,-0.168675035238266,1.5291472673416138,2.452927589416504,38.87423779296875
1766000058959714000,41.18071411132812,-0.1362992078065872,1.5152500867843628,2.4484987258911133,38.893017578125
1766000058978493700,41.19949365234375,-0.109115719795227,1.3866630792617798,2.4097087383270264,38.91179711914062
1766000058997273300,41.2182734375,-0.0962875634431839,1.1798852682113647,2.3432772159576416,38.93057690429688
1766000059016053000,41.23705297851563,-0.0998000353574752,0.9483675956726074,2.2513420581817627,38.9493564453125
1766000059034832600,41.25583251953125,-0.1078939884901046,0.7226530313491821,2.1507022380828857,38.96813598632813
1766000059053612500,41.27461254882813,-0.1159879490733146,0.513279139995575,2.0190608501434326,38.986916015625006
1766000059072392200,41.29339208984375,-0.1239291951060295,0.3116937577724457,1.856570839881897,39.005695556640624
1766000059091171800,41.312171875,-0.1408806890249252,0.1354592591524124,1.6643010377883911,39.02447534179687
1766000059109951500,41.33095141601562,-0.1729510873556137,-0.0091629717499017,1.4508038759231567,39.0432548828125
1766000059128731100,41.34973120117188,-0.2138790339231491,-0.1379027217626571,1.22234046459198,39.06203466796875
1766000059147510800,41.3685107421875,-0.2584721744060516,-0.2351829409599304,0.9822705388069152,39.08081420898438
1766000059166290400,41.38729052734375,-0.2998582422733307,-0.3086394369602203,0.7209731340408325,39.099593994140626
1766000059185070000,41.40607006835938,-0.3472002744674682,-0.3063486814498901,0.425925463438034,39.11837353515625
1766000059203849700,41.424849609375,-0.4383718371391296,-0.215482547879219,0.1041524484753608,39.13715307617188
1766000059222629400,41.44362939453125,-0.5610029697418213,0.093920461833477,-0.3959930837154388,39.155932861328125
1766000059241409000,41.46240893554688,-0.6932551860809326,0.3547597229480743,-1.0653481483459473,39.17471240234376
1766000059260188700,41.48118872070312,-0.7477748394012451,0.1608101576566696,-1.3066397905349731,39.1934921875
1766000059278968300,41.49996826171875,-0.3649153411388397,-0.3623955249786377,-1.0987930297851562,39.212271728515624
1766000059297748000,41.518748046875,0.1059086844325065,-0.952643632888794,-1.1641556024551392,39.23105151367187
1766000059316527600,41.53752758789062,0.212962731719017,-1.320231556892395,-1.116202712059021,39.2498310546875
1766000059335307300,41.55630737304688,0.0261908266693353,-1.3150391578674316,-0.9834923148155212,39.26861083984375
1766000059354087000,41.5750869140625,-0.1106428802013397,-1.080161690711975,-0.8483384847640991,39.28739038085938
1766000059372866800,41.59386669921875,-0.1463784724473953,-0.565049946308136,-0.6609556674957275,39.306170166015626
1766000059391646500,41.612646484375,-0.1303432732820511,-0.1331685185432434,-0.5093085169792175,39.324949951171874
1766000059410426000,41.631426025390624,-0.0849865600466728,-0.0415388047695159,-0.3616319596767425,39.3437294921875
1766000059429205800,41.65020581054687,0.0147371124476194,-0.0907134190201759,-0.2029598206281662,39.36250927734375
1766000059447985400,41.6689853515625,0.1430187225341797,-0.2458730787038803,-0.0224492810666561,39.38128881835937
1766000059466765000,41.68776513671875,0.2795470058917999,-0.3956876695156097,0.1867718994617462,39.40006860351563
1766000059485544700,41.70654467773438,0.3980547487735748,-0.4561632871627807,0.444404125213623,39.41884814453125
1766000059504324400,41.72532446289063,0.4857138693332672,-0.439822643995285,0.7195987105369568,39.43762792968751
1766000059523104000,41.74410400390625,0.5182424187660217,-0.3637699782848358,0.975703775882721,39.45640747070313
1766000059541883600,41.76288354492188,0.5399280786514282,-0.2742782831192016,1.1641556024551392,39.47518701171875
1766000059560663300,41.781663330078125,0.544051468372345,-0.164780780673027,1.2828160524368286,39.493966796875
1766000059579443000,41.80044287109375,0.5773435831069946,-0.0054977829568088,1.3106104135513306,39.512746337890626
1766000059598222600,41.81922265625,0.6750819683074951,0.0164933484047651,1.2344050407409668,39.53152612304687
1766000059617002200,41.83800219726562,0.7207440733909607,-0.3436114490032196,0.9195042252540588,39.55030566406249
1766000059635782100,41.8567822265625,0.7412080764770508,-0.763428270816803,0.458301305770874,39.569085693359376
1766000059654561500,41.8755615234375,0.8862884640693665,-1.061682939529419,-0.296269416809082,39.58786499023437
1766000059673341200,41.89434106445312,0.945847749710083,-1.119104266166687,-1.278540015220642,39.60664453125
1766000059701511000,41.92251098632813,0.5626828074455261,-1.5997021198272705,-2.6752822399139404,39.634814453125
1766000059720290600,41.94129052734375,0.3323867917060852,-2.1813981533050537,-3.42725682258606,39.65359399414063
1766000059739070200,41.9600703125,0.3105483949184418,-2.931845426559448,-3.947255373001098,39.672373779296876
1766000059757849900,41.97884985351563,0.5296961069107056,-2.9158103466033936,-4.189310550689697,39.6911533203125
1766000059776629500,41.99762939453125,0.8898009061813354,-2.429561853408813,-4.241081237792969,39.70993286132813
1766000059795409200,42.0164091796875,0.8406262993812561,-1.6310089826583862,-4.126697063446045,39.728712646484375
1766000059814188800,42.035188720703125,0.4385245442390442,-2.047160625457764,-2.609766960144043,39.7474921875
1766000059832968400,42.05396850585937,0.2616792023181915,-0.4470002949237823,-2.785543441772461,39.76627197265625
1766000059851748000,42.072748046875,0.1505018174648285,0.4584540128707886,-2.517679214477539,39.785051513671874
1766000059870527700,42.09152783203125,0.2366337478160858,1.1783581972122192,-2.240804672241211,39.80383129882812
1766000059889307400,42.11030737304687,-0.1428660005331039,3.2255187034606934,-1.913075804710388,39.82261083984375
1766000059908087000,42.12908715820313,-0.3982074856758117,4.337750911712647,-1.547778606414795,39.841390625
1766000059945646300,42.16664624023438,-0.3412443399429321,1.918268084526062,-1.0682498216629028,39.87894970703125
1766000059964426000,42.18542602539063,-0.0414624474942684,-0.0016798780998215,-0.6962331533432007,39.89772949218751
1766000059983205600,42.20420556640625,0.2920697331428528,-1.096349596977234,-0.2156352698802948,39.91650903320313
1766000060001985300,42.2229853515625,0.3846157491207123,-0.8811724185943604,0.2162461280822754,39.935288818359375
1766000060020765000,42.241764892578125,0.3247509896755218,0.296727567911148,0.607046902179718,39.954068359375
1766000060039544600,42.26054467773437,0.2306778132915496,1.475391149520874,0.9367611408233644,39.97284814453125
1766000060058324200,42.27932421875,0.241062507033348,2.0628902912139893,1.2050834894180298,39.991627685546874
1766000060077103900,42.29810375976562,0.2531270980834961,2.081979990005493,1.4385865926742554,40.01040722656249
1766000060095883500,42.31688354492187,0.2676351368427276,1.6898046731948853,1.6300926208496094,40.02918701171875
1766000060114663200,42.3356630859375,0.3161988854408264,1.1684316396713257,1.795331597328186,40.04796655273437
1766000060133442800,42.35444287109375,0.396222174167633,0.782365083694458,1.9506440162658687,40.06674633789063
1766000060152222500,42.37322241210938,0.4182133078575134,0.6160571575164795,2.098015069961548,40.08552587890625
