time,seconds_elapsed,z,y,x,t
1766000050175502000,32.396502197265626,-2.33198618888855,-0.5501508712768555,-0.322550892829895,30.122890625
1766000050194281700,32.41528173828125,-2.229849338531494,-0.1750516891479492,-0.3480627536773681,30.141670166015626
1766000050213061600,32.4340615234375,-2.2324059009552,0.1185340881347656,-0.6278189420700073,30.160449951171874
1766000050231841300,32.45284130859375,-2.3246567249298096,0.103952407836914,-1.0225573778152466,30.17922973632812
1766000050250621200,32.47162109375,-1.9995412826538088,0.0651607513427734,-1.509941339492798,30.198009521484376
1766000050269400800,32.49040087890625,-1.7657301425933838,0.0058412551879882,-1.470979928970337,30.216789306640624
1766000050288180700,32.5091806640625,-1.9071974754333496,0.3123760223388672,-1.3423001766204834,30.235569091796872
1766000050306960400,32.52796044921875,-1.6668462753295898,0.7748603820800781,-1.4254050254821775,30.254348876953127
1766000050325740000,32.54673999023437,-1.4934625625610352,0.8112545013427734,-1.2398535013198853,30.273128417968746
1766000050344520000,32.56552001953125,-1.2075300216674805,0.655980110168457,-0.7615206837654114,30.291908447265623
1766000050363299600,32.584299560546874,-1.0027718544006348,0.6292781829833984,-0.306002527475357,30.31068798828125
1766000050382079500,32.60307958984375,-0.7975692749023438,0.7676706314086914,0.2428355067968368,30.329468017578126
1766000050400859100,32.62185913085938,-0.6960296630859375,0.983224868774414,0.8230966329574585,30.34824755859375
1766000050419638800,32.640638671875,-0.7761473655700684,1.3229265213012695,1.2530258893966677,30.367027099609377
1766000050438418700,32.65941870117187,-0.9802656173706056,2.3939599990844727,1.7872474193572998,30.385807128906247
1766000050457198300,32.6781982421875,-0.2995567321777344,3.156023979187012,1.848985195159912,30.404586669921873
1766000050475978200,32.696978271484376,1.859532117843628,2.8399572372436523,1.0267709493637085,30.42336669921875
1766000050494758000,32.7157578125,3.5233263969421387,1.9305429458618164,-1.7472351789474487,30.442146240234376
1766000050513537800,32.73453784179687,2.6477532386779785,3.142417907714844,-3.4859936237335205,30.460926269531246
1766000050532317400,32.7533173828125,1.7340922355651855,3.672350883483887,-2.756782293319702,30.47970581054687
1766000050551097300,32.772097412109375,2.195261240005493,1.985213279724121,-2.187763929367065,30.49848583984375
1766000050569877000,32.790876953125,2.3122591972351074,0.3499402999877929,-2.758298397064209,30.517265380859374
1766000050588656600,32.80965673828125,1.7142183780670166,0.5882797241210938,-2.900926351547241,30.536045166015622
1766000050607436500,32.8284365234375,1.0892033576965332,1.154707908630371,-2.457965135574341,30.554824951171877
1766000050626216200,32.84721630859375,0.970271110534668,0.8678913116455078,-2.113614320755005,30.573604736328125
1766000050644996000,32.86599609375,1.605920433998108,0.0032567977905273,-1.7457771301269531,30.592384521484373
1766000050663775700,32.884775634765624,1.7811768054962158,-0.5898799896240234,-0.4466443657875061,30.6111640625
1766000050682555400,32.90355541992187,1.1611394882202148,-0.5308027267456055,1.414189100265503,30.629943847656246
1766000050701335300,32.92233520507813,0.2780461311340332,-0.1900224685668945,2.2611398696899414,30.6487236328125
1766000050720115000,32.941114990234375,-0.2701740264892578,-0.2067031860351562,3.007474184036255,30.66750341796875
1766000050738894800,32.95989477539062,-0.8395967483520508,-0.2323255538940429,2.723952054977417,30.686283203124997
1766000050757674500,32.97867456054688,-1.2537455558776855,-0.1536855697631836,1.697081208229065,30.705062988281252
1766000050776454400,32.997454345703126,-1.2155563831329346,-0.0398550033569335,0.5852306485176086,30.7238427734375
1766000050795234000,33.016234130859374,-0.843986988067627,0.1283931732177734,-0.277963638305664,30.742622558593748
1766000050814013700,33.035013671875,-0.4182727336883545,0.1571016311645507,-0.5156229138374329,30.761402099609374
1766000050832793600,33.05379370117188,-0.1329419612884521,0.0514812469482421,-0.3635115027427673,30.78018212890625
1766000050851573200,33.0725732421875,-0.0700657367706298,-0.0406627655029296,-0.0877174735069274,30.798961669921876
1766000050870353200,33.09135327148437,-0.0561573505401611,0.0548162460327148,0.023254070430994,30.817741699218747
1766000050889132800,33.1101328125,-0.0820376873016357,0.1360940933227539,-0.0057551525533199,30.836521240234372
1766000050907912700,33.12891259765625,-0.0089752674102783,0.055551528930664,-0.131612479686737,30.855301025390627
1766000050926692400,33.1476923828125,0.0937507152557373,-0.1341018676757812,-0.1126496940851211,30.874080810546875
1766000050945472000,33.16647192382813,0.0581450462341308,-0.2010526657104492,-0.0424894616007804,30.8928603515625
1766000050964252000,33.185251953125,0.0500843524932861,-0.2292566299438476,0.0480955503880977,30.91164038085937
1766000050983031600,33.20403149414062,-0.0463755130767822,-0.1903333663940429,0.1414846628904342,30.930419921874996
1766000051001811500,33.2228115234375,-0.0598447322845459,-0.1526575088500976,0.1850189417600631,30.949199951171874
1766000051020591000,33.241591064453125,0.0141729116439819,-0.1261129379272461,0.1184554174542427,30.9679794921875
1766000051039370800,33.26037084960937,0.0941274166107177,-0.1740560531616211,-0.0478572100400924,30.986759277343747
1766000051058150700,33.27915063476563,0.2581865787506103,-0.2714147567749023,-0.1893833875656128,31.005539062500002
1766000051076930300,33.29793041992188,0.5109163522720337,-0.2073736190795898,-0.2771745324134826,31.024318847656257
1766000051095710200,33.316710205078124,0.8119428157806396,-0.2534208297729492,-0.4530075788497925,31.043098632812498
1766000051114489900,33.33548974609375,1.0156304836273191,-0.3531045913696289,-0.7991490960121155,31.061878173828124
1766000051133269500,33.35426953125,1.2570250034332275,-0.1325340270996093,-0.7445124387741089,31.08065795898437
1766000051152049400,33.37304931640625,1.2280023097991943,-0.009683609008789,-0.569905161857605,31.099437744140626
1766000051170829000,33.3918291015625,0.9987735748291016,0.0858707427978515,-0.1918384879827499,31.118217529296874
1766000051189609000,33.41060888671875,0.4690778255462646,0.0961465835571289,-0.0453492552042007,31.136997314453122
1766000051208388600,33.429388671875,0.0363361835479736,0.0712909698486328,-0.1067944020032882,31.155777099609377
1766000051227168300,33.44816821289062,-0.1116482019424438,0.1166248321533203,0.1462887227535247,31.174556640624996
1766000051245948200,33.4669482421875,-0.0348175764083862,0.0359401702880859,0.6576119065284729,31.193336669921873
1766000051264727800,33.485727783203124,-0.0213458538055419,-0.2650175094604492,0.9267998337745668,31.2121162109375
1766000051283507700,33.5045078125,-0.1661595106124878,-0.1425075531005859,0.786605954170227,31.230896240234376
1766000051302287400,33.52328735351563,-0.2421042919158935,0.1262874603271484,0.5738027095794678,31.24967578125
1766000051321067000,33.54206689453125,-0.1569794416427612,0.0935592651367187,0.5538303256034851,31.268455322265627
1766000051339847000,33.56084692382812,0.1079646348953247,-0.0184268951416015,0.5722702741622925,31.287235351562497
1766000051358626600,33.57962646484375,0.3867378234863281,-0.0080690383911132,0.4462054967880249,31.306014892578123
1766000051377406500,33.598406494140626,0.6618648767471313,0.0981006622314453,0.2717392742633819,31.324794921875
1766000051396186000,33.61718603515625,1.022682785987854,0.1558523178100586,-0.0419136583805084,31.343574462890626
1766000051414965800,33.6359658203125,1.7034993171691897,0.0175800323486328,-0.5081816911697388,31.362354248046874
1766000051433745700,33.65474560546875,2.870546102523804,-0.327463150024414,-1.230166792869568,31.38113403320312
1766000051452525300,33.673525390625,4.470517158508301,-0.5820102691650391,-2.3408899307250977,31.399913818359376
1766000051471305200,33.69230517578125,6.141003608703613,0.1272268295288086,-4.73596715927124,31.418693603515624
1766000051490084900,33.7110849609375,8.63486099243164,0.1875810623168945,-6.551482677459717,31.437473388671872
1766000051508864500,33.729864501953124,11.015469551086426,-0.3233108520507812,-7.41130256652832,31.456252929687498
1766000051527644400,33.74864453125,10.416979789733888,-0.1410102844238281,-7.961096286773682,31.475032958984375
1766000051546424000,33.76742407226563,2.4611198902130127,1.7454423904418943,-7.42319917678833,31.4938125
1766000051565204000,33.786203857421874,-1.6932921409606934,0.8022160530090331,-2.2866642475128174,31.51259228515625
1766000051583983600,33.80498364257812,-4.440366744995117,2.745382785797119,3.973790407180786,31.531372070312496
1766000051602763300,33.82376318359375,-5.562155246734619,2.5818657875061035,7.115808486938477,31.550151611328122
1766000051621543200,33.842543212890625,-6.602640628814697,3.745323181152344,8.049982070922852,31.568931640625
1766000051640322800,33.86132275390625,-4.908026695251465,1.4184083938598633,4.542335510253906,31.587711181640625
1766000051659102500,33.8801025390625,-3.006921529769897,-0.2105293273925781,1.489179015159607,31.606490966796873
1766000051677882400,33.89888232421875,-5.470215797424316,-2.6392388343811035,-1.8550583124160769,31.62527075195312
1766000051696662000,33.917662109375,-8.872742652893066,-1.313943862915039,-12.533071517944336,31.644050537109376
1766000051715442000,33.93644189453125,-6.772436141967773,3.392982482910156,-4.519063472747803,31.662830322265624
1766000051734221600,33.9552216796875,-1.422688126564026,-1.6114501953125,10.228059768676758,31.68161010742187
1766000051753001200,33.97400122070312,0.5789681077003479,-3.2006163597106934,3.2361432313919067,31.700389648437497
1766000051771781000,33.99278100585938,-2.4902164936065674,-3.461732864379883,8.881407737731934,31.719169433593752
1766000051790560800,34.011560791015626,-3.608469009399414,-3.461732864379883,-2.40912127494812,31.73794921875
1766000051809340700,34.030340576171874,-2.6385645866394043,-3.5258684158325195,-11.602859497070312,31.756729003906248
1766000051828120300,34.04912036132812,-1.063398003578186,-3.590003967285156,-4.392701029777527,31.775508789062496
1766000051846900000,34.06789990234375,-2.210955619812012,-3.590003967285156,-6.376280784606934,31.79428833007812
1766000051865680000,34.086679931640624,-4.027691841125488,-3.7424263954162598,0.821289598941803,31.813068359375
1766000051884459500,34.10545947265625,-4.602384567260742,-3.580415725708008,4.828291893005371,31.831847900390624
1766000051903239200,34.1242392578125,-4.787394046783447,-3.8948488235473633,4.356115341186523,31.850627685546872
1766000051922019000,34.14301904296875,-4.735811233520508,-3.2659826278686523,2.319337844848633,31.869407470703127
1766000051940798700,34.161798828125,-4.21108341217041,-3.020699977874756,0.2007282376289367,31.888187255859375
1766000051959578400,34.180578369140626,-3.757007598876953,-2.7797203063964844,-1.2650926113128662,31.906966796875
1766000051978358300,34.199358154296874,-2.9788196086883545,-2.263998985290528,-1.845953226089477,31.92574658203125
1766000051997138000,34.21813793945312,-2.232430219650269,-1.9363021850585935,-1.1535170078277588,31.944526367187496
1766000052015917600,34.23691748046875,-1.925255537033081,-1.9505929946899412,-0.0994288101792335,31.96330590820312
1766000052034697500,34.255697509765625,-1.9333631992340088,-1.482391357421875,0.3590277433395386,31.9820859375
1766000052053477000,34.27447705078125,-2.0989537239074707,-0.4951343536376953,0.5139366388320923,32.00086547851563
1766000052072257000,34.29325708007813,-1.6942782402038574,-0.3253889083862304,0.7848886847496033,32.019645507812506
1766000052091036700,34.31203662109375,-1.4774274826049805,-1.1794390678405762,1.4769192934036257,32.03842504882813
1766000052109816300,34.33081640625,-4.675821304321289,-1.3541831970214844,1.5603195428848269,32.05720483398438
1766000052128596200,34.34959619140625,-5.094200611114502,3.4357471466064453,0.4026696681976318,32.07598461914063
1766000052147375900,34.3683759765625,4.419902324676514,1.0407819747924805,-0.6003556251525879,32.094764404296875
