time,seconds_elapsed,z,y,x,t
1766000061213272300,43.43427221679688,0.6118574142456055,-0.4460839927196502,-0.4885390996932983,41.14657568359375
1766000061241441800,43.46244189453125,0.2717584669589996,1.3168717622756958,0.1498145908117294,41.17474536132813
1766000061269611300,43.490611328125,0.0119882216677069,2.4778201580047607,0.6362156867980957,41.202914794921874
1766000061297780700,43.51878076171875,-0.1663842946290969,2.395200729370117,0.9934188723564148,41.23108422851563
1766000061316560400,43.53756030273438,-0.2447277009487152,1.9718714952468872,1.1334595680236816,41.24986376953125
1766000061335340000,43.55634008789063,-0.2361755967140197,1.6352850198745728,1.2768601179122925,41.26864355468751
1766000061363509500,43.58450952148438,-0.2647335231304168,1.2956441640853882,1.458897829055786,41.29681298828125
1766000061382289200,43.6032890625,-0.2980256676673889,1.254258155822754,1.56350839138031,41.31559252929687
1766000061401068800,43.62206884765625,-0.2905425727367401,1.3484840393066406,1.691789984703064,41.33437231445313
1766000061419848200,43.64084814453125,-0.2583194375038147,1.4358376264572144,1.8144210577011108,41.35315161132812
1766000061438627800,43.6596279296875,-0.2172387838363647,1.5378520488739014,1.8955134153366089,41.37193139648438
1766000061457407500,43.67840747070313,-0.1705076247453689,1.6490294933319092,1.95843243598938,41.3907109375
1766000061476187100,43.697187255859376,-0.1135444939136505,1.7029383182525637,2.000582218170166,41.40949072265625
1766000061494966800,43.715966796875,-0.0574976466596126,1.7470732927322388,2.0184500217437744,41.42827026367188
1766000061513746400,43.73474633789063,0.0051159923896193,1.729663610458374,2.005927324295044,41.4470498046875
1766000061532526000,43.75352612304688,0.086513727903366,1.6201660633087158,1.9718714952468872,41.46582958984376
1766000061551305700,43.7723056640625,0.1874591261148452,1.3597849607467651,1.9013166427612305,41.484609130859376
1766000061570085400,43.79108544921875,0.3348302543163299,1.046105980873108,1.8147265911102293,41.50338891601562
1766000061588865000,43.80986499023437,0.4446332156658172,0.672104001045227,1.7414227724075315,41.52216845703124
1766000061617034500,43.83803442382813,0.5263363718986511,0.1466075479984283,1.6369649171829224,41.550337890625
1766000061635814100,43.856814208984375,0.5063305497169495,-0.0537560991942882,1.574962139129639,41.56911767578125
1766000061654593800,43.87559375,0.4406625926494598,-0.1455385386943817,1.5033382177352903,41.587897216796875
1766000061673373400,43.89437353515625,0.3432296514511108,-0.1658497899770736,1.3936879634857178,41.60667700195312
1766000061692152800,43.91315283203125,0.2392299175262451,-0.1493564397096634,1.2536472082138062,41.62545629882813
1766000061710932500,43.93193237304688,0.1659261435270309,-0.1049160286784172,1.060308575630188,41.64423583984375
1766000061729712000,43.950712158203125,0.0930805206298828,-0.0125227281823754,0.8399390578269958,41.663015625
1766000061748491800,43.96949169921875,0.0208457615226507,0.0696385875344276,0.5862774848937988,41.681795166015625
1766000061767271400,43.988271484375,-0.0749072954058647,0.1650862097740173,0.2739728391170501,41.70057495117187
1766000061786051000,44.00705102539062,-0.2178496569395065,0.539851725101471,-0.1849393099546432,41.7193544921875
1766000061804830700,44.02583081054688,-0.5090794563293457,0.7388409376144409,-0.620333194732666,41.738134277343754
1766000061823610400,44.0446103515625,-0.5614610910415649,0.150883600115776,-0.4503600597381592,41.75691381835937
1766000061842390000,44.06339013671875,0.0133626665920019,-0.0297796577215194,-0.1230892539024353,41.77569360351563
1766000061861169700,44.08216967773438,0.3061196208000183,-0.4196641147136688,0.1159115955233573,41.79447314453125
1766000061879949300,44.10094921875,0.3655261993408203,-0.6082686185836792,0.3300196826457977,41.81325268554688
1766000061898729000,44.11972900390625,0.2456440031528473,-0.453108936548233,0.4503600597381592,41.832032470703126
1766000061917508600,44.13850854492188,0.2725220620632171,-0.3946186602115631,0.569173276424408,41.85081201171876
1766000061936288300,44.15728833007813,0.3774380683898926,-0.3601047992706299,0.6830995678901672,41.86959179687501
1766000061955068000,44.17606787109375,0.3979020416736603,-0.3875937163829803,0.7307469844818115,41.888371337890625
1766000061973847600,44.19484765625,0.3499491512775421,-0.4373791813850403,0.717307984828949,41.90715112304687
1766000062002016800,44.22301684570313,0.3207803666591644,-0.4370737373828888,0.6386591196060181,41.935320312500004
1766000062039576000,44.260576171875,0.3621664643287658,-0.5519163012504578,0.4908298552036285,41.97287963867188
1766000062058355700,44.27935571289063,0.3659843504428863,-0.6155989766120911,0.3814850449562073,41.9916591796875
1766000062077135400,44.29813525390625,0.3742310404777527,-0.6281217336654663,0.2544251680374145,42.01043872070313
1766000062095915000,44.3169150390625,0.3873646259307861,-0.5134318470954895,0.1125518381595611,42.029218505859376
1766000062114694700,44.335694580078126,0.4111883640289306,-0.1852447390556335,-0.0571158565580844,42.047998046875
1766000062133474300,44.35447436523437,0.3278053104877472,0.1157588735222816,-0.3176496922969818,42.06677783203124
1766000062171033600,44.39203369140625,-0.1375209391117096,0.4445568323135376,-0.8610138893127441,42.10433715820312
1766000062189813000,44.41081298828125,-0.2473238706588745,0.351705402135849,-1.0777181386947632,42.123116455078126
1766000062208592600,44.42959252929688,-0.1555414497852325,0.1409570425748825,-1.2675443887710571,42.14189599609376
1766000062227372300,44.44837231445312,0.0805577933788299,-0.0736092031002044,-1.446985960006714,42.16067578124999
1766000062255541800,44.47654174804688,0.0260381121188402,-0.4842630624771118,-1.5757256746292114,42.18884521484375
1766000062274321400,44.4953212890625,-0.2131154537200927,-0.8633046746253967,-1.7484476566314695,42.20762475585938
1766000062293101000,44.51410107421875,-0.1277471035718917,-1.2340996265411377,-2.199571371078491,42.226404541015626
1766000062311880700,44.532880615234376,0.2228892892599105,-1.577100157737732,-2.6369504928588867,42.24518408203125
1766000062330660400,44.551660400390624,0.4403571486473083,-1.9080361127853396,-3.0392050743103027,42.2639638671875
1766000062349440000,44.57043994140625,0.4443277716636657,-2.1245877742767334,-3.503920316696167,42.282743408203125
1766000062368219400,44.58921948242188,0.3392590284347534,-2.171013355255127,-4.064388751983643,42.30152294921876
1766000062386999000,44.6079990234375,0.2641226649284363,-2.2087342739105225,-4.625010013580322,42.320302490234376
1766000062415168500,44.63616845703125,0.0095447618514299,-2.32464599609375,-5.220450401306152,42.34847192382813
1766000062433948200,44.6549482421875,-0.432568609714508,-3.107469081878662,-4.24383020401001,42.36725170898438
1766000062452727800,44.67372778320313,-1.2442551851272583,-2.7959280014038086,-3.358076333999634,42.38603125
1766000062471507500,44.692507568359375,-1.4519492387771606,-0.914770007133484,-3.3177592754364014,42.40481103515625
1766000062490287000,44.711287109375,-0.7916043996810913,0.2191477417945861,-2.9962916374206543,42.423590576171875
1766000062509066800,44.73006665039063,-0.7671698331832886,0.7677043080329895,-2.374584197998047,42.44237011718751
1766000062527846400,44.74884643554688,-0.7364738583564758,1.3661991357803345,-1.8057162761688232,42.461149902343756
1766000062546626000,44.7676259765625,-0.502970814704895,1.6033673286437988,-1.2454005479812622,42.479929443359374
1766000062584185000,44.80518505859375,-0.1770744323730468,1.59832763671875,-0.3043633699417114,42.517488525390625
1766000062602964700,44.82396484375,0.104076087474823,1.4283546209335327,0.1377500146627426,42.53626831054687
1766000062621744400,44.84274438476562,0.2312886714935302,0.9970840215682985,0.4915934205055237,42.5550478515625
1766000062640524000,44.86152392578125,0.308563083410263,0.7677043080329895,0.7947350740432739,42.573827392578124
1766000062659303700,44.8803037109375,0.3946950137615204,0.6346884965896606,1.057254195213318,42.59260717773437
1766000062678083300,44.89908325195312,0.4528798758983612,0.5013672709465027,1.254868984222412,42.61138671875
1766000062696863000,44.91786303710938,0.5478693246841431,0.536644697189331,1.395825982093811,42.63016650390625
1766000062715642400,44.93664233398437,0.3389535844326019,0.4221075773239136,1.3765838146209717,42.64894580078125
1766000062734422000,44.95542211914063,0.1811977624893188,0.5474875569343567,1.2948806285858154,42.667725585937504
1766000062753201700,44.97420166015625,0.0932332351803779,0.918893337249756,1.2374593019485474,42.68650512695312
1766000062781371100,45.00237109375,0.0045051276683807,1.261588454246521,1.1578941345214844,42.714674560546875
1766000062800150800,45.02115087890625,-0.0329103395342826,1.2873975038528442,1.1346813440322876,42.73345434570312
1766000062818930400,45.03993041992187,-0.0061850058846175,1.1177297830581665,1.0961968898773191,42.75223388671875
1766000062837710000,45.0587099609375,0.1011744812130928,1.066264510154724,0.3732383847236633,42.771013427734374
1766000062856489700,45.07748974609375,-0.4770090281963348,1.2095122337341309,-2.3626723289489746,42.78979321289062
1766000062875269000,45.09626904296875,-2.092135429382324,-1.9639302492141724,-2.447887897491455,42.808572509765625
1766000062894048800,45.115048828125,-0.492127925157547,-4.422355651855469,-1.389870047569275,42.82735229492187
1766000062912828400,45.13382836914062,0.2381609082221985,-2.433379888534546,-0.8486438989639282,42.8461318359375
1766000062931608000,45.15260815429688,-0.0626899972558021,-0.4279107749462127,-0.8629992008209229,42.86491162109375
1766000062959777500,45.180777587890624,-0.0225256383419036,0.4059196412563324,-0.3750709891319275,42.8930810546875
1766000062978557200,45.19955712890625,0.0025198173243552,0.6783653497695923,-0.1530216336250305,42.911860595703125
1766000062997336800,45.2183369140625,0.0607046857476234,-0.1634063273668289,-0.0311541035771369,42.93064038085937
1766000063016116200,45.2371162109375,0.1060613989830017,-1.1226167678833008,-0.0832303240895271,42.949419677734376
1766000063034896000,45.255895751953126,0.1923460513353347,-1.2238675355911257,-0.0314595364034175,42.96819921875
1766000063063065300,45.2840654296875,0.3032180070877075,-0.7093667387962341,-0.0045814858749508,42.99636889648438
1766000063081845000,45.30284497070313,0.3299433290958404,-0.3477347791194916,-0.027336198836565,43.0151484375
1766000063100624600,45.321624755859375,0.3665952384471893,0.0951421856880188,-0.0261144693940877,43.03392822265625
1766000063119404300,45.340404296875,0.3508654534816742,0.3973675370216369,-0.013133592903614,43.052707763671876
1766000063147573800,45.36857373046875,0.2074649482965469,0.4118755757808685,-0.0531452372670173,43.08087719726563
1766000063166353200,45.38735327148437,0.170965775847435,0.3136790692806244,-0.0997236743569374,43.09965673828125
1766000063185132800,45.4061328125,0.1392008066177368,0.1870773434638977,-0.1516471803188324,43.11843627929687
1766000063203912400,45.42491235351562,0.1052978187799453,0.013133592903614,-0.1812741160392761,43.1372158203125
1766000063222692000,45.44369213867188,0.0839175507426261,-0.132404938340187,-0.1823431402444839,43.15599560546875
1766000063241471700,45.4624716796875,0.0315358936786651,-0.2394589930772781,-0.2087630331516266,43.17477514648438
1766000063260251400,45.48125146484375,-0.0542906075716018,-0.2383899837732315,-0.2414443045854568,43.19355493164063
1766000063279031000,45.50003100585938,-0.0759763047099113,-0.0351247265934944,-0.233503058552742,43.21233447265625
1766000063297810400,45.518810546875,-0.067576915025711,0.1237001195549964,-0.1898262351751327,43.23111401367188
1766000063316590000,45.53759008789063,-0.0724638327956199,0.1188132017850875,-0.1351538300514221,43.2498935546875
1766000063335369700,45.55636962890625,-0.0500145554542541,-0.0013744457392022,-0.0778852626681327,43.26867309570313
1766000063354149400,45.5751494140625,-0.0355065166950225,-0.0994182452559471,-0.0406225062906742,43.28745288085938
