time,seconds_elapsed,z,y,x,t
1766000042170605600,24.39160546875,0.0633008629083633,0.0381790474057197,0.0641408041119575,22.103908935546876
1766000042189385200,24.41038525390625,0.0697149410843849,0.0389426313340663,0.0526870861649513,22.122688720703124
1766000042208165000,24.4291650390625,0.081015944480896,0.0436768308281898,0.0430659651756286,22.141468505859375
1766000042226945000,24.44794506835937,0.0915533602237701,0.0280997790396213,0.026267185807228,22.160248535156246
1766000042245725000,24.466724853515625,0.0967457070946693,-0.0045814858749508,0.0019853105768561,22.1790283203125
1766000042264504800,24.4855048828125,0.0946076810359954,-0.0361937396228313,-0.0294742248952388,22.197808349609375
1766000042283284700,24.50428466796875,0.098731018602848,-0.0471893027424812,-0.0613919086754322,22.216588134765626
1766000042302064400,24.523064453125,0.1030070707201957,-0.0380263328552246,-0.090866133570671,22.235367919921874
1766000042320844300,24.54184423828125,0.1004109010100364,-0.0157297682017087,-0.1163697391748428,22.254147705078125
1766000042339624200,24.560624267578124,0.0944549664855003,0.0119118634611368,-0.1336266696453094,22.272927734375
1766000042358404000,24.579404052734372,0.0926223695278167,0.0303905233740806,-0.1472184062004089,22.291707519531247
1766000042377184000,24.59818408203125,0.0904843434691429,0.0594066008925437,-0.153174340724945,22.310487548828124
1766000042395964000,24.6169638671875,0.0907897800207138,0.0812450125813484,-0.1547015011310577,22.329267333984376
1766000042414743800,24.63574389648437,0.0984255895018577,0.0922405794262886,-0.1565341055393219,22.348047363281246
1766000042433523500,24.6545234375,0.1077412739396095,0.0766635313630104,-0.167071521282196,22.366826904296875
1766000042452303400,24.673303466796877,0.1207221522927284,0.0522289387881755,-0.1812741160392761,22.385606933593753
1766000042471083300,24.692083251953125,0.1315650045871734,0.0229074284434318,-0.1895207911729812,22.40438671875
1766000042489863200,24.71086328125,0.1130863428115844,-0.0328339822590351,-0.1769980639219284,22.423166748046874
1766000042508643000,24.72964306640625,0.0695622265338897,-0.1545487940311432,-0.176234483718872,22.441946533203126
1766000042527423000,24.748423095703124,0.0758235901594162,-0.2176205813884735,-0.1960875988006591,22.4607265625
1766000042546202600,24.76720263671875,0.0570394992828369,-0.2156352698802948,-0.2163988500833511,22.479506103515625
1766000042564982500,24.785982421875,0.007559451740235,-0.1374445706605911,-0.2307541668415069,22.498285888671877
1766000042583762400,24.804762451171875,-0.0199294630438089,-0.0268780495971441,-0.2423606067895889,22.51706591796875
1766000042602542300,24.823542236328127,-0.0353537984192371,0.0401643589138984,-0.2507599890232086,22.535845703125002
1766000042621322200,24.842322265625,-0.048334676772356,0.0474947355687618,-0.258395791053772,22.554625732421876
1766000042640102100,24.86110205078125,-0.0594829581677913,0.0352774411439895,-0.2614501118659973,22.573405517578124
1766000042658881800,24.8798818359375,-0.0636062920093536,0.0448985621333122,-0.2562577724456787,22.592185302734375
1766000042677661700,24.89866162109375,-0.067118763923645,0.0514653585851192,-0.2475529462099075,22.610965087890627
1766000042696441600,24.917441650390625,-0.0646753087639808,0.0474947355687618,-0.2382372617721557,22.6297451171875
1766000042715221500,24.93622143554688,-0.0605519711971282,0.019700389355421,-0.2240346521139145,22.648524902343755
1766000042734001400,24.95500146484375,-0.0545960403978824,-0.0140498895198106,-0.2093739062547683,22.667304931640626
1766000042752781300,24.97378125,-0.0556650534272193,-0.0375681854784488,-0.1934914141893386,22.686084716796874
1766000042771561000,24.99256103515625,-0.0559704862534999,-0.0319176837801933,-0.1756236255168914,22.704864501953125
1766000042790340900,25.0113408203125,-0.0574976466596126,-0.0048869182355701,-0.1540906429290771,22.723644287109376
1766000042809120800,25.03012084960937,-0.0607046857476234,0.0218384154140949,-0.1304196268320083,22.742424316406247
1766000042827900700,25.048900634765623,-0.0591775253415107,0.0358883067965507,-0.106595903635025,22.761204101562498
1766000042846680600,25.0676806640625,-0.05337430909276,0.0369573198258876,-0.0855210721492767,22.779984130859376
1766000042865460500,25.08646044921875,-0.0567340664565563,0.0059559317305684,-0.0704021677374839,22.798763916015627
1766000042884240100,25.105240234375,-0.0579557977616786,-0.0310013871639966,-0.0688750073313713,22.817543701171875
1766000042903020000,25.12402001953125,-0.0727692693471908,-0.070096731185913,-0.0757472291588783,22.836323486328126
1766000042921800000,25.142800048828125,-0.090637058019638,-0.1287397593259811,-0.0937677472829818,22.855103515625
1766000042940579800,25.161579833984376,-0.0985783040523529,-0.1934914141893386,-0.1186604797840118,22.87388330078125
1766000042959359700,25.18035986328125,-0.1132390573620796,-0.2180787324905395,-0.1328630894422531,22.892663330078125
1766000042978139400,25.19913940429688,-0.1182786896824836,-0.1837175786495208,-0.1333212405443191,22.911442871093755
1766000042996919300,25.217919189453124,-0.0842229798436164,-0.1107192412018776,-0.0978910773992538,22.93022265625
1766000043015699200,25.23669921875,-0.0509308502078056,-0.173485592007637,0.0012217295588925,22.949002685546876
1766000043034479000,25.25547900390625,-0.0243582334369421,-0.2625191509723663,0.1252272725105285,22.967782470703124
1766000043053259000,25.274259033203126,0.0133626665920019,-0.3110828995704651,0.2518289983272552,22.9865625
1766000043072039000,25.29303881835937,0.0489455386996269,-0.315206229686737,0.379347026348114,23.005342285156246
1766000043090818600,25.311818603515626,0.0852919965982437,-0.2887863218784332,0.5119046568870544,23.0241220703125
1766000043109598500,25.330598388671877,0.1337030231952667,-0.3045161068439483,0.6724094152450562,23.042901855468752
1766000043128378400,25.34937841796875,0.2589302957057953,-0.3594939112663269,0.8755219578742981,23.061681884765626
1766000043147158300,25.368158203125,0.427528977394104,-0.4033234715461731,1.1226167678833008,23.080461669921874
1766000043165938200,25.38693823242188,0.6300306916236877,-0.4636463820934295,1.3927717208862305,23.099241699218755
1766000043184717800,25.4057177734375,0.7861065864562988,-0.5056433081626892,1.661094069480896,23.118021240234377
1766000043203497700,25.424497802734376,0.7745001912117004,-0.4949531853199005,1.904370903968811,23.13680126953125
1766000043222277600,25.443277587890623,0.6251437664031982,-0.5083922147750854,2.0693044662475586,23.1555810546875
1766000043241057500,25.4620576171875,0.3452149629592895,-0.910646677017212,1.83366334438324,23.174361083984376
1766000043259837400,25.48083740234375,0.0136680994182825,-1.2846486568450928,1.2794562578201294,23.193140869140624
1766000043278617300,25.499617431640623,-0.0500145554542541,-1.3147337436676023,0.790917158126831,23.211920898437498
1766000043297397000,25.51839697265625,0.213420882821083,-0.8457422852516174,0.2472475171089172,23.230700439453127
1766000043316177000,25.537177001953125,0.4412734508514404,-0.2929096519947052,-0.8060360550880432,23.24948046875
1766000043334956800,25.555956787109373,0.3288743197917938,-0.1180496215820312,-1.855807185173035,23.26826025390625
1766000043353736700,25.57473681640625,0.0704785212874412,-0.7805324792861938,-1.330921620130539,23.287040283203126
1766000043372516600,25.5935166015625,0.0150425452739,-2.531728982925415,-2.246760666370392,23.305820068359374
1766000043391296300,25.612296142578124,0.0171805713325738,-1.365130066871643,-2.637714147567749,23.324599609375
1766000043410076200,25.631076171875,0.124845489859581,-1.365130066871643,-2.637714147567749,23.343379638671877
1766000043428856000,25.64985595703125,-0.0663551837205886,-1.365130066871643,-2.5964808464050293,23.362159423828125
1766000043447636000,25.668635986328123,0.9806670546531676,0.0426078177988529,-2.5964808464050293,23.380939453125
1766000043466415900,25.68741577148437,0.7638100385665894,1.7305799722671509,-1.9653047323226929,23.399719238281246
1766000043485195500,25.706195556640623,0.3581958413124084,2.5379903316497803,-1.3052653074264526,23.418499023437498
1766000043503975400,25.724975341796878,0.3100902438163757,1.826332926750183,-0.5424479246139526,23.437278808593753
1766000043522755300,25.74375537109375,0.5498546361923218,0.8109229803085327,0.0809395834803581,23.456058837890627
1766000043541535200,25.76253515625,0.5793288946151733,0.0670424103736877,0.6824886798858643,23.474838623046875
1766000043560315100,25.78131518554688,0.519769549369812,-0.0332921296358108,1.1985167264938354,23.493618652343756
1766000043579094800,25.8000947265625,0.3436878025531769,0.4456258714199066,1.5665627717971802,23.512398193359374
1766000043597874700,25.818874755859376,0.1419496983289718,1.0193805694580078,1.7825034856796265,23.53117822265625
1766000043616654600,25.837654541015624,0.025427246466279,1.4454587697982788,1.887266755104065,23.5499580078125
1766000043635434500,25.8564345703125,-0.0694095119833946,1.530063509941101,1.913533926010132,23.568738037109377
1766000043654214400,25.87521435546875,-0.1680641770362854,1.3972004652023315,1.8829907178878784,23.587517822265625
1766000043672994000,25.893994140625,-0.2511417865753174,1.1467459201812744,1.814879298210144,23.606297607421876
1766000043691774000,25.91277392578125,-0.3253618478775024,0.9008728265762328,1.708283305168152,23.625077392578124
1766000043710553900,25.93155395507813,-0.3995819091796875,0.7325795888900757,1.583056092262268,23.643857421875005
1766000043729333800,25.95033374023437,-0.4492146968841553,0.6476693749427795,1.4680607318878174,23.662637207031246
1766000043748113400,25.969113525390625,-0.4831176698207855,0.6085740327835083,1.324660301208496,23.6814169921875
1766000043766893300,25.987893310546877,-0.5448150038719177,0.5508472919464111,1.1606431007385254,23.700196777343752
1766000043785673200,26.006673095703125,-0.6436223983764648,0.5885682106018066,0.9265291690826416,23.7189765625
1766000043804453000,26.025453125,-0.774652898311615,0.7916807532310486,0.6740893125534058,23.737756591796874
1766000043823233000,26.04423291015625,-0.9157626628875732,1.2327251434326172,0.4802924394607544,23.756536376953125
1766000043842013000,26.063012939453124,-1.12360942363739,2.489884853363037,-0.453719824552536,23.77531640625
1766000043860792600,26.08179248046875,-1.2288308143615725,2.4639229774475098,-0.6913462281227112,23.794095947265625
1766000043879572500,26.100572509765627,-0.7247146964073181,2.1777329444885254,-0.6574432253837585,23.812875976562502
1766000043898352400,26.119352294921875,0.1941786408424377,1.0509928464889526,-0.755181610584259,23.83165576171875
1766000043917132300,26.13813232421875,0.4809796512126922,-0.4002691507339477,-0.5143481492996216,23.850435791015624
1766000043935912200,26.156912109375,0.1622609496116638,-1.0274745225906372,-0.2922987937927246,23.869215576171875
1766000043954691800,26.17569189453125,0.0709366723895073,-1.1151336431503296,-0.215482547879219,23.887995361328127
1766000043973471700,26.1944716796875,0.1648571342229843,-0.8225294351577759,-0.2557996213436126,23.906775146484375
1766000043992251600,26.213251708984377,0.3782016634941101,-0.551152765750885,-0.3497200906276703,23.925555175781252
1766000044011031600,26.232031494140625,0.5530617237091064,-0.5838339924812317,-0.4616610705852508,23.9443349609375
1766000044029811500,26.2508115234375,0.5339722037315369,-0.7509055137634277,-0.5207622051239014,23.963114990234374
1766000044048591000,26.269591064453124,0.4018726646900177,-0.8681915402412415,-0.5097666382789612,23.98189453125
1766000044067371000,26.28837109375,0.2654971182346344,-0.8275690674781799,-0.4665479660034179,24.000674560546877
1766000044086151000,26.30715087890625,0.1508072465658188,-0.5894845128059387,-0.411570131778717,24.019454345703124
1766000044104930800,26.325930908203127,0.0400880016386508,-0.2428187429904937,-0.3656025826931,24.038234375000002
1766000044123710500,26.34471044921875,-0.0672714859247207,0.1585194170475006,-0.3150535225868225,24.057013916015624
1766000044142490400,26.363490478515622,-0.1752418279647827,0.4871646761894226,-0.2774853408336639,24.075793945312498
