time,seconds_elapsed,z,y,x,t
1766000047180126700,29.40112670898437,0.5907113552093506,-0.2516956329345703,0.8972444534301758,27.127515136718745
1766000047198906600,29.41990673828125,0.4916090965270996,-0.3297796249389648,0.2806016504764557,27.146295166015623
1766000047217686300,29.438686279296878,0.236802339553833,-0.2956628799438476,-0.2313080728054046,27.165074707031252
1766000047236466200,29.45746606445313,0.2567522525787353,-0.1766986846923828,-0.1750795543193817,27.183854492187503
1766000047255246000,29.47624609375,0.6366981267929077,-0.0323505401611328,0.1890069097280502,27.202634521484374
1766000047274025700,29.495025634765625,0.8787068128585815,-0.0064926147460937,0.3483576774597168,27.2214140625
1766000047292805600,29.5138056640625,1.0363281965255735,0.0870532989501953,0.1207693070173263,27.240194091796873
1766000047311585300,29.532585205078124,1.3721115589141846,0.1706829071044922,-0.2831231355667114,27.2589736328125
1766000047330365200,29.551365234375,1.9277883768081665,0.1430568695068359,-0.7992956042289734,27.277753662109376
1766000047349145000,29.57014501953125,2.561100006103516,0.2545175552368164,-1.7468217611312866,27.296533447265624
1766000047367924700,29.5889248046875,3.400142192840576,0.1870021820068359,-2.965202808380127,27.315313232421875
1766000047386704600,29.60770458984375,3.5765380859375,1.1223106384277344,-5.049273014068604,27.334093017578123
1766000047405484500,29.626484619140623,4.216853141784668,2.164949417114258,-7.471925258636475,27.352873046874997
1766000047424264200,29.64526416015625,4.735881805419922,0.9274168014526368,-7.496436595916748,27.371652587890622
1766000047443044000,29.66404418945313,2.665534496307373,0.9047174453735352,-7.000612735748291,27.390432617187503
1766000047461823700,29.68282373046875,0.265054702758789,2.286417007446289,-5.835465431213379,27.409212158203125
1766000047480603600,29.701603759765625,-1.6157560348510742,2.558835029602051,-1.4664767980575562,27.4279921875
1766000047499383300,29.72038330078125,-2.386560440063477,2.023763656616211,3.1230573654174805,27.446771728515625
1766000047518163200,29.7391630859375,-2.04766845703125,0.9104175567626952,4.367945671081543,27.465551513671873
1766000047536943000,29.757943115234376,-1.030994892120361,-0.4792289733886719,5.362370491027832,27.48433154296875
1766000047555722800,29.77672265625,-0.3073763847351074,-0.7482204437255859,6.645465850830078,27.503111083984376
1766000047574502700,29.795502685546875,-0.1933197975158691,0.1177244186401367,6.271332263946533,27.52189111328125
1766000047593282600,29.814282470703127,0.967991590499878,0.8942937850952148,4.660204887390137,27.5406708984375
1766000047612062200,29.83306225585937,1.4049947261810305,1.116633415222168,5.154345512390137,27.559450683593745
1766000047630842000,29.851842041015622,-2.3475379943847656,0.8388166427612305,4.144772052764893,27.578230468749997
1766000047649621800,29.870621826171877,-2.969292163848877,1.001667022705078,2.420322895050049,27.59701025390625
1766000047668401700,29.889401611328125,-7.962762832641602,-1.2606563568115234,1.4456124305725098,27.6157900390625
1766000047687181600,29.908181640625,-7.379396438598633,-0.7922096252441406,-3.566504955291748,27.634570068359373
1766000047705961200,29.926961181640625,-4.888864517211914,1.0484952926635742,1.88551926612854,27.653349609375
1766000047724741000,29.9457412109375,-2.455082654953003,0.6073160171508789,6.512406349182129,27.672129638671873
1766000047743520800,29.964520751953124,-1.511214256286621,1.448704719543457,1.88551926612854,27.690909179687498
1766000047762300700,29.98330078125,-2.064078092575073,-0.0303707122802734,2.9272944927215576,27.709689208984376
1766000047781080600,30.00208056640625,-0.1288032531738281,-3.7682504653930655,-0.6578173637390137,27.728468994140623
1766000047799860200,30.020860107421875,2.469447612762451,-4.541861534118652,-3.303050994873047,27.74724853515625
1766000047818640100,30.03964013671875,3.682867765426636,-3.710549831390381,-4.892410755157471,27.766028564453123
1766000047837419800,30.05841967773437,0.8677752017974854,-4.127779006958008,-5.94828462600708,27.784808105468745
1766000047856199700,30.07719970703125,-2.8305583000183105,-3.4353718757629395,-4.892410755157471,27.803588134765626
1766000047874979300,30.095979248046877,-3.732790470123291,-2.8509774208068848,-0.9715642929077148,27.82236767578125
1766000047893759200,30.11475927734375,-4.767219543457031,-2.879528045654297,2.436279296875,27.841147705078125
1766000047912539000,30.133538818359376,-4.990045547485352,-2.417719841003418,2.144233703613281,27.85992724609375
1766000047931318800,30.15231884765625,-5.0574951171875,-2.355958938598633,1.2158300876617432,27.878707275390624
1766000047950098700,30.1710986328125,-4.629924774169922,-2.1494898796081543,0.9702693819999696,27.897487060546876
1766000047968878300,30.18987841796875,-3.9291090965271,-1.6313867568969729,0.6819210052490234,27.916266845703124
1766000047987658200,30.208658203125,-3.425201416015625,-1.3304815292358398,-0.1568442583084106,27.935046630859375
1766000048006438000,30.22743798828125,-2.9119081497192383,-1.3603010177612305,-0.7073358297348022,27.953826416015623
1766000048025217800,30.2462177734375,-2.513757467269897,-1.369715690612793,-0.7134565114974976,27.972606201171875
1766000048043997400,30.26499755859375,-2.273944854736328,-1.2156124114990234,-0.4148560166358948,27.991385986328122
1766000048062777300,30.28377734375,-1.965367555618286,-0.9494733810424804,0.0590013712644577,28.010165771484374
1766000048081557200,30.30255712890625,-2.1342458724975586,-0.7177858352661133,0.5859662294387817,28.028945556640625
1766000048100337000,30.3213369140625,-1.6955351829528809,-0.7667407989501953,1.1286664009094238,28.047725341796873
1766000048119116500,30.340116455078125,-1.4244236946105957,-1.4395451545715332,1.4764504432678225,28.0665048828125
1766000048137896400,30.358896484375,-2.015413761138916,-2.484182357788086,1.4896671772003174,28.085284912109373
1766000048156676400,30.37767626953125,-7.168332099914551,1.0191659927368164,0.3100916147232055,28.104064697265624
1766000048175456000,30.3964560546875,0.7244155406951904,3.709233283996582,-0.4218800067901611,28.122844482421876
1766000048194236000,30.41523583984375,5.201121330261231,2.364199638366699,-3.186774253845215,28.141624267578123
1766000048213015600,30.434015625,4.701289176940918,3.3098249435424805,-5.688141345977783,28.160404052734375
1766000048231795500,30.45279541015625,5.676824569702148,1.4816012382507324,-6.509168148040772,28.179183837890623
1766000048250575000,30.4715751953125,2.7027840614318848,2.910416603088379,-4.742152690887451,28.197963623046874
1766000048269355000,30.49035498046875,-1.384920597076416,0.0527858734130859,-3.112612247467041,28.216743408203126
1766000048288134700,30.509134765625,-3.4793803691864014,-1.9819679260253904,-0.2398766577243805,28.235523193359374
1766000048306914600,30.52791455078125,-3.7126176357269287,-3.661306381225586,0.7377285957336426,28.254302978515625
1766000048325694500,30.546694580078125,-2.071404457092285,-4.328861713409424,1.2698239088058472,28.2730830078125
1766000048344474000,30.56547412109375,-0.1488759517669677,-2.3219194412231445,1.6266520023345947,28.291862548828124
1766000048363254000,30.58425390625,0.8128740787506104,0.2580318450927734,2.236652374267578,28.310642333984376
1766000048382033700,30.60303369140625,0.8280353546142578,1.7019786834716797,3.2136659622192383,28.329422119140624
1766000048400813600,30.6218134765625,0.6248452663421631,1.0167274475097656,3.277407646179199,28.348201904296875
1766000048419593200,30.64059326171875,0.5142204761505127,-0.0834865570068359,2.115513324737549,28.366981689453123
1766000048438373000,30.659373046875,0.3459227085113525,-0.3509330749511719,0.5972008109092712,28.385761474609374
1766000048457152800,30.67815283203125,0.0507574081420898,0.2844009399414062,-0.3517645001411438,28.404541259765626
1766000048475932700,30.6969326171875,-0.5986969470977783,0.8794317245483398,-0.8947092890739441,28.423321044921874
1766000048494712300,30.71571240234375,-1.2022292613983154,0.7304916381835938,-0.9728742241859436,28.442100830078125
1766000048513492200,30.7344921875,-1.5463650226593018,0.1638221740722656,-0.79053795337677,28.460880615234373
1766000048532271900,30.75327197265625,-1.592275857925415,-0.3064327239990234,-0.4698665142059326,28.479660400390625
1766000048551051800,30.7720517578125,-1.063471794128418,-0.4301462173461914,-0.2866279482841491,28.498440185546873
1766000048569831400,30.79083154296875,-0.3441019058227539,-0.3277215957641601,-0.2370076179504394,28.517219970703124
1766000048588611300,30.809611328125,0.4621685743331909,-0.3521385192871094,-0.533413290977478,28.535999755859375
1766000048607391200,30.82839111328125,0.99514901638031,-0.3372201919555664,-0.3899853229522705,28.554779541015623
1766000048626171000,30.8471708984375,1.4788070917129517,-0.3007011413574219,-0.3526842594146728,28.573559326171875
1766000048644950800,30.86595068359375,1.3776487112045288,-0.1629066467285156,0.103882610797882,28.592339111328123
1766000048663730400,30.88473046875,1.223919153213501,0.0449514389038085,0.398975670337677,28.611118896484374
1766000048682510300,30.90351025390625,0.8209820985794067,0.1435575485229492,0.5872271656990051,28.629898681640626
1766000048710679800,30.9316796875,0.4486557245254516,-0.0870704650878906,0.3481987118721008,28.658068115234375
1766000048729459700,30.950459716796875,0.3524646759033203,-0.2027816772460937,0.3051197528839111,28.67684814453125
1766000048748239400,30.9692392578125,0.3272532224655151,-0.1479616165161132,0.1850821375846862,28.695627685546874
1766000048767019300,30.98801928710937,0.1155171394348144,-0.0290775299072265,0.1844198703765869,28.714407714843745
1766000048785799000,31.006798828125,-0.0367748737335205,-0.1123952865600586,0.2918111681938171,28.733187255859374
1766000048804578800,31.025578857421877,-0.0789862871170044,-0.2663793563842773,0.3007495999336242,28.75196728515625
1766000048823358500,31.0443583984375,0.0270594358444213,-0.2868309020996094,0.2805802822113037,28.770746826171873
1766000048842138400,31.063138427734376,0.2021436691284179,-0.0874891281127929,0.2696863412857055,28.78952685546875
1766000048860918000,31.08191796875,0.4045823812484741,0.0082855224609375,0.2022185921669006,28.808306396484372
1766000048879698000,31.10069799804688,0.6088505983352661,0.021097183227539,0.1632329225540161,28.827086425781253
1766000048898477600,31.1194775390625,0.8783289790153503,-0.041386604309082,0.0500447750091552,28.845865966796875
1766000048917257500,31.13825756835937,1.143561840057373,-0.0754384994506836,-0.1230689883232116,28.864645996093746
1766000048936037000,31.157037109375,1.2934236526489258,-0.0221672058105468,-0.3003314137458801,28.883425537109375
1766000048954817000,31.175817138671874,1.2734073400497437,0.0577726364135742,-0.3148016333580017,28.90220556640625
1766000048973596700,31.1945966796875,1.0644278526306152,0.0309648513793945,-0.2997353672981262,28.920985107421874
1766000048992376600,31.21337646484375,0.7646182179450989,0.0746612548828125,-0.144084095954895,28.939764892578125
1766000049011156200,31.23215625,0.5885463953018188,0.1257095336914062,0.1287106871604919,28.958544677734373
1766000049029936000,31.25093603515625,0.3197014927864074,0.0426359176635742,0.3181608319282532,28.977324462890625
1766000049048715800,31.2697158203125,0.0302870273590087,-0.1275091171264648,0.2446067333221435,28.996104248046873
1766000049067495700,31.28849560546875,-0.0559501647949218,-0.1036624908447265,0.2158105969429016,29.014884033203124
1766000049086275300,31.307275390625,-0.0710270404815673,0.0108509063720703,0.3578330874443054,29.033663818359376
1766000049105055200,31.32605517578125,-0.0849701762199401,-0.0510892868041992,0.4186255931854248,29.052443603515623
1766000049123835000,31.3448349609375,-0.0641576647758483,-0.0796766281127929,0.4214673042297363,29.071223388671875
1766000049142614800,31.36361474609375,-0.1419588327407837,-0.0778083801269531,0.3729767203330993,29.090003173828123
1766000049161394400,31.38239453125,-0.1621631383895874,-0.0129880905151367,0.3566868901252746,29.108782958984374
