time,seconds_elapsed,z,y,x,t
1766000054156807000,36.377806884765626,2.343907356262207,1.3831911087036133,-1.4052733182907104,34.1041953125
1766000054175586600,36.396586669921874,1.3014342784881592,0.3068304061889648,-2.6394214630126958,34.12297509765625
1766000054194366200,36.4153662109375,0.5875918865203857,0.5966463088989258,-2.859071016311645,34.14175463867188
1766000054213145900,36.434145751953125,0.7830557823181152,0.8416223526000977,-2.098804235458374,34.1605341796875
1766000054231925800,36.45292578125,1.4178075790405271,0.4698266983032226,-1.5503270626068115,34.17931420898438
1766000054250705400,36.47170532226563,1.2385188341140747,-0.2005071640014648,-0.816267728805542,34.198093750000005
1766000054269485000,36.49048510742188,0.6243252754211426,-0.5411195755004883,0.424359917640686,34.21687353515626
1766000054288264700,36.5092646484375,-0.0145328044891357,-0.4743614196777344,1.1112453937530518,34.23565307617188
1766000054307044600,36.52804467773438,-0.5510942935943604,-0.4963302612304687,1.616260647773743,34.254433105468756
1766000054325824300,36.54682421875,-0.9625868797302246,-0.2743406295776367,1.6301052570343018,34.273212646484374
1766000054344604000,36.56560400390625,-1.1106245517730713,0.0536127090454101,1.0972890853881836,34.29199243164063
1766000054363383800,36.5843837890625,-0.9579346179962158,0.0862665176391601,0.3540426194667816,34.31077221679688
1766000054382163500,36.60316357421875,-0.7728168964385986,0.0343837738037109,-0.1064026355743408,34.329552001953125
1766000054400943000,36.62194311523437,-0.4036669731140136,-0.31072998046875,-0.7221277952194214,34.34833154296875
1766000054419722800,36.64072265625,0.0163080692291259,-0.5151090621948242,-1.1922084093093872,34.367111083984376
1766000054438502700,36.65950268554688,0.2348604202270507,-0.3233547210693359,-0.6734098196029663,34.38589111328126
1766000054457282300,36.6782822265625,0.3503437042236328,-0.0973634719848632,0.3780265748500824,34.40467065429688
1766000054476062000,36.69706201171875,0.3968394994735718,0.069955825805664,1.3717141151428225,34.42345043945313
1766000054494841600,36.715841552734375,0.2811288833618164,0.2406539916992187,1.258812665939331,34.44222998046875
1766000054513621500,36.73462158203125,0.148639440536499,0.0799694061279296,0.7597014307975769,34.46101000976563
1766000054532401200,36.75340112304688,0.0290348529815673,-0.1143941879272461,0.4026041626930237,34.479789550781256
1766000054551180800,36.772180908203126,-0.0759470462799072,-0.054915428161621,0.4430286586284637,34.4985693359375
1766000054569960400,36.79096044921875,-0.0760306119918823,-0.0319995880126953,0.6649373769760132,34.51734887695313
1766000054588740400,36.809740234375,-0.1073037385940551,-0.0460433959960937,0.8876586556434631,34.53612866210938
1766000054607520000,36.82852001953125,-0.0534441471099853,-0.0940608978271484,0.7894752621650696,34.554908447265625
1766000054626299600,36.84729956054687,0.3938134908676147,-0.0706520080566406,0.5554068088531494,34.57368798828125
1766000054645079300,36.86607934570313,1.4049184322357178,-0.1609010696411132,0.1818639487028122,34.592467773437505
1766000054663859000,36.88485888671875,2.7351789474487305,-0.2565250396728515,-0.517431378364563,34.61124731445313
1766000054682638800,36.90363891601562,3.4157538414001465,-0.0462627410888671,-1.086296319961548,34.63002734375
1766000054701418500,36.92241845703125,3.078389883041382,0.2019357681274414,-1.424489974975586,34.64880688476563
1766000054720198100,36.9411982421875,2.2282817363739014,0.1730785369873047,-1.368767023086548,34.667586669921874
1766000054738977800,36.95997778320312,1.8354113101959229,0.1091938018798828,-1.0655744075775146,34.6863662109375
1766000054757757700,36.9787578125,2.329733371734619,0.1987075805664062,-1.24614155292511,34.70514624023438
1766000054776537300,36.997537353515625,3.347346782684326,0.3485593795776367,-2.0674855709075928,34.72392578125
1766000054795317000,37.01631689453125,4.38214111328125,0.3637952804565429,-3.124361753463745,34.74270532226563
1766000054814096600,37.0350966796875,4.714836597442627,0.2873983383178711,-4.013909339904785,34.761485107421876
1766000054832876500,37.05387646484375,5.077290058135986,0.7892818450927734,-4.375479698181152,34.78026489257813
1766000054851656200,37.07265625,5.0682053565979,1.290022850036621,-5.183620929718018,34.79904467773438
1766000054870435800,37.09143579101563,4.224879741668701,1.0283918380737305,-5.24107551574707,34.817824218750005
1766000054889215500,37.11021557617188,0.9743671417236328,1.2886438369750977,-4.69582462310791,34.83660400390626
1766000054907995400,37.12899536132812,-1.2239701747894287,2.8506174087524414,-3.2436366081237797,34.8553837890625
1766000054926775000,37.14777514648438,-1.4485139846801758,3.206399917602539,3.2107183933258057,34.874163574218755
1766000054945554700,37.1665546875,-1.8131425380706787,2.284942626953125,6.600996017456055,34.89294311523438
1766000054964334600,37.18533447265625,-3.336941957473755,0.7221965789794922,6.461583137512207,34.91172290039063
1766000054983114200,37.2041142578125,-3.4426915645599365,-1.5173921585083008,5.235663414001465,34.93050268554688
1766000055001894000,37.222893798828125,-3.1983773708343506,-1.9549503326416016,2.4646034240722656,34.9492822265625
1766000055020673500,37.24167358398437,-0.91449236869812,-1.350508689880371,-0.5479795932769775,34.96806201171875
1766000055039453400,37.26045336914063,2.595544576644897,-0.376922607421875,-2.487830638885498,34.986841796875005
1766000055058233000,37.27923315429688,-4.789138317108154,2.575315475463867,-0.6987333297729492,35.00562158203126
1766000055077012700,37.2980126953125,-6.5432305335998535,0.9794096946716309,2.93566370010376,35.02440112304688
1766000055095792400,37.31679248046875,-16.48883819580078,0.6672687530517578,7.177505970001221,35.04318090820313
1766000055114572000,37.33557202148437,-3.581306219100952,1.291550636291504,7.001496315002441,35.061960449218745
1766000055133352000,37.35435205078125,-3.136298656463623,2.2827749252319336,8.518060684204102,35.08074047851563
1766000055152131600,37.37313159179688,5.675126075744629,-0.2819385528564453,4.022053718566895,35.099520019531255
1766000055170911200,37.3919111328125,1.7934165000915527,-0.6630287170410156,0.3617527484893799,35.11829956054688
1766000055189691000,37.41069091796875,1.4062237739562988,-0.0392045974731445,-4.602899074554443,35.13707934570313
1766000055208470800,37.429470703125,-0.7788348197937012,-2.5891594886779785,-7.280761241912842,35.155859130859376
1766000055227250400,37.44825048828125,-0.2016999721527099,-3.918972969055176,-5.4117536544799805,35.17463891601563
1766000055246030000,37.46703002929687,-0.5531704425811768,-3.5141468048095703,-0.8902969360351562,35.19341845703125
1766000055264809700,37.48580981445313,-2.0928378105163574,-2.512045860290528,1.7613036632537842,35.212198242187505
1766000055283589600,37.504589599609375,-3.518465042114258,-1.7203035354614258,2.395085334777832,35.23097802734375
1766000055302369300,37.52336938476562,-4.354739189147949,-1.8408079147338867,1.9871001243591309,35.2497578125
1766000055321149000,37.54214892578125,-4.582677841186523,-1.9077033996582031,0.5921816825866699,35.268537353515626
1766000055339928600,37.56092846679688,-4.178826332092285,-1.487687110900879,-0.1320620775222778,35.28731689453126
1766000055358708200,37.57970825195312,-3.28210997581482,-0.7821559906005859,-0.7230292558670044,35.3060966796875
1766000055377488100,37.59848803710938,-3.0706632137298584,-0.4108161926269531,-1.3809187412261963,35.324876464843754
1766000055396267800,37.61726782226562,-2.8095128536224365,-0.4301443099975586,-1.5582245588302612,35.343656249999995
1766000055415047400,37.63604736328125,-2.7735838890075684,-0.8089323043823242,-1.0458983182907104,35.36243579101563
1766000055433827000,37.6548271484375,-2.8901164531707764,-1.0984878540039062,-0.5024109482765198,35.381215576171876
1766000055452607000,37.67360693359375,-2.8074662685394287,-1.321939468383789,0.1252089142799377,35.39999536132813
1766000055471386600,37.69238671875,-2.556842803955078,-1.2269058227539062,0.4469159543514251,35.41877514648438
1766000055490166300,37.711166259765626,-2.32617735862732,-1.1272573471069336,0.4468713104724884,35.437554687500004
1766000055508946000,37.72994580078125,-2.0466349124908447,-0.8369770050048828,0.2125757485628128,35.45633422851563
1766000055527725600,37.7487255859375,-1.8030153512954712,-0.2769842147827148,-0.4008968472480774,35.47511401367188
1766000055546505500,37.76750537109375,-1.6865050792694092,0.1080598831176757,-0.9890730381011964,35.493893798828125
1766000055565285000,37.78628515625,-1.6490960121154783,0.112558364868164,-1.1852363348007202,35.51267358398438
1766000055584064800,37.80506469726563,-1.5771546363830566,-0.0232925415039062,-1.2180922031402588,35.531453125000006
1766000055602844400,37.82384448242188,-1.7177488803863523,0.1347827911376953,-1.259135365486145,35.55023291015626
1766000055621624300,37.84262426757813,-1.7045655250549316,0.4151153564453125,-1.1692286729812622,35.56901269531251
1766000055640404000,37.86140405273437,-1.6059622764587402,0.5981225967407227,-1.1335439682006836,35.58779248046875
1766000055659183600,37.88018359375,-1.4707462787628174,0.5470733642578125,-1.305007815361023,35.606572021484375
1766000055677963300,37.89896337890625,-1.4131686687469482,0.4923276901245117,-1.4940638542175293,35.62535180664063
1766000055696743000,37.91774291992188,-1.4165763854980469,0.6780920028686523,-1.583669662475586,35.644131347656256
1766000055715522800,37.936522705078126,-1.217060089111328,0.7288274765014648,-1.7867883443832395,35.6629111328125
1766000055734302500,37.95530249023437,-0.9765863418579102,0.571436882019043,-1.3843462467193604,35.681690917968744
1766000055753082000,37.97408203125,-0.6599068641662598,0.6559457778930664,-0.6184250712394714,35.70047045898438
1766000055771861800,37.99286181640625,-0.5174040794372559,0.9481229782104492,-0.0250047519803047,35.719250244140625
1766000055790641400,38.01164135742187,-0.3883705139160156,1.1925172805786133,0.6322192549705505,35.73802978515625
1766000055809421300,38.03042138671875,-0.1173210144042968,1.5233640670776367,1.0546356439590454,35.75680981445313
1766000055828201000,38.049200927734375,0.5292484760284424,1.8477354049682615,1.2589788436889648,35.77558935546875
1766000055846980600,38.06798071289062,1.114922046661377,1.851053237915039,1.2824772596359253,35.794369140625
1766000055865760300,38.08676025390625,2.72536563873291,1.2144489288330078,0.6184977293014526,35.81314868164063
1766000055884540200,38.1055400390625,2.571394681930542,1.2428159713745115,-0.7634971141815186,35.831928466796874
1766000055903319800,38.12431982421875,1.7536249160766602,1.9799175262451167,-0.4669229984283447,35.85070825195313
1766000055922099500,38.14309936523438,1.3024332523345947,1.5994491577148438,0.0902183651924133,35.869487792968755
1766000055940879000,38.16187915039063,1.462475061416626,0.548828125,-0.0939385294914245,35.88826757812501
1766000055959658800,38.18065869140625,1.1956768035888672,-0.0456457138061523,-1.2094519138336182,35.90704711914063
1766000055978438700,38.19943872070313,0.6788487434387207,0.5242881774902344,-1.6163146495819092,35.925827148437506
1766000055997218300,38.21821826171875,0.3011672496795654,0.8756542205810547,-1.4732561111450195,35.944606689453124
1766000056015998000,38.236998046875,0.1322910785675048,0.3124704360961914,-1.3123836517333984,35.96338647460938
1766000056034777600,38.25577758789063,0.0109870433807373,-0.1931838989257812,-1.1728529930114746,35.982166015625005
1766000056053557200,38.27455712890625,0.0784690380096435,-0.2900352478027344,-0.8035439848899841,36.00094555664063
1766000056072337000,38.2933369140625,0.7403028011322021,-0.1957263946533203,-0.0700085759162902,36.01972534179688
1766000056091116800,38.31211669921875,0.6525042057037354,0.0037689208984375,0.8110416531562805,36.038505126953126
1766000056109896400,38.330896484375,0.4235572814941406,0.1901702880859375,1.1191271543502808,36.05728491210938
1766000056128676000,38.34967602539062,0.1251363754272461,0.1515350341796875,1.2682732343673706,36.076064453125
