time,seconds_elapsed,z,y,x,t
1766000032175008000,14.396008056640625,-0.4974007606506347,0.569148063659668,0.3647410869598388,12.122396484375
1766000032193788000,14.414787841796874,-0.681854248046875,0.4892587661743164,0.782410740852356,12.14117626953125
1766000032212567800,14.43356787109375,-0.8135080337524414,0.6230964660644531,1.117390751838684,12.159956298828126
1766000032231347700,14.45234765625,-0.7882418632507324,1.031125545501709,0.7947579026222229,12.178736083984376
1766000032250127600,14.471127685546875,0.2864646911621094,2.705404281616211,0.0367288589477539,12.197516113281251
1766000032268907500,14.489907470703123,1.3185482025146484,3.067972183227539,-1.2427372932434082,12.2162958984375
1766000032287687400,14.5086875,2.5798797607421875,1.8925857543945312,-2.188201427459717,12.235075927734377
1766000032306467300,14.52746728515625,1.044893741607666,1.8175048828125,-3.2460737228393555,12.253855712890626
1766000032325247200,14.546247314453124,0.5173807144165039,3.63906192779541,-1.8315329551696775,12.2726357421875
1766000032344027100,14.565027099609376,1.7299213409423828,3.6200904846191406,-1.4274952411651611,12.291415527343752
1766000032362807000,14.58380712890625,2.295485019683838,2.579831123352051,-2.7970569133758545,12.310195556640625
1766000032381586700,14.602586669921877,2.212615728378296,3.114734649658203,-3.567736864089966,12.328975097656253
1766000032400366600,14.62136669921875,1.6943533420562744,3.0004920959472656,-3.107829093933105,12.347755126953126
1766000032419146500,14.640146484375,0.941030502319336,1.4609451293945312,-2.163384199142456,12.366534912109376
1766000032437926400,14.658926513671876,0.2761249542236328,-0.212717056274414,-1.4484909772872925,12.385314941406252
1766000032456706300,14.677706298828124,-0.2000112533569336,-1.0281257629394531,-0.4360947608947754,12.4040947265625
1766000032475486200,14.696486328125,-0.0812630653381347,-1.2619447708129885,1.0859012603759766,12.422874755859375
1766000032494266000,14.71526611328125,0.4887423515319824,-0.9375810623168944,2.4492905139923096,12.441654541015627
1766000032513046000,14.7340458984375,1.1936016082763672,-0.2611351013183594,2.842041015625,12.460434326171876
1766000032531826000,14.752825927734374,2.4668216705322266,0.6171655654907227,2.5694832801818848,12.47921435546875
1766000032550605800,14.771605712890626,2.5817418098449707,1.3118696212768557,1.122336506843567,12.497994140625002
1766000032569385700,14.7903857421875,2.5833754539489746,1.443558692932129,0.0336284935474395,12.516774169921876
1766000032588165600,14.80916552734375,2.343345165252685,1.242070198059082,-0.5181639194488525,12.535553955078125
1766000032606945500,14.827945556640625,2.136103868484497,1.9633560180664065,-0.7693356871604919,12.554333984375
1766000032625725400,14.846725341796876,2.0143840312957764,2.72066593170166,-0.6509921550750732,12.573113769531252
1766000032644505300,14.86550537109375,2.1232118606567383,2.9774398803710938,-1.1636077165603638,12.591893798828126
1766000032663285200,14.88428515625,2.012101173400879,2.6400718688964844,-2.191375255584717,12.610673583984376
1766000032682065000,14.90306494140625,1.1095237731933594,1.7587013244628906,-2.1734297275543213,12.629453369140625
1766000032700844800,14.9218447265625,-0.2174477577209472,1.0519027709960938,-1.5531357526779177,12.648233154296875
1766000032719624700,14.940624755859377,-1.053276538848877,0.3946218490600586,-1.1275750398635864,12.667013183593753
1766000032738404600,14.959404541015624,-0.8458981513977051,0.2062339782714843,-0.050390601158142,12.68579296875
1766000032757184500,14.9781845703125,0.1143031120300293,0.6420364379882812,0.3560966849327087,12.704572998046876
1766000032775964400,14.99696435546875,0.3450093269348144,1.2222967147827148,0.1269865930080413,12.723352783203126
1766000032794744300,15.015744384765624,0.0487275123596191,2.280826568603516,0.4632576406002044,12.7421328125
1766000032813524200,15.034524169921877,0.2437763214111328,3.0784788131713867,1.1190325021743774,12.760912597656253
1766000032832304000,15.05330419921875,0.1288168430328369,2.7303695678710938,0.7114264369010925,12.779692626953127
1766000032851084000,15.072083984375,-0.3685197830200195,2.1413021087646484,0.1885921657085418,12.798472412109376
1766000032869864000,15.090864013671874,-0.5166573524475098,2.2003908157348637,0.9487009644508362,12.81725244140625
1766000032888643800,15.109643798828126,-0.8585909605026245,2.089200973510742,0.970934510231018,12.836032226562502
1766000032907423700,15.128423828125,-3.1792781352996826,-2.9580297470092773,1.5945558547973633,12.854812255859375
1766000032926203600,15.14720361328125,-5.854444980621338,-2.495522975921631,-3.6963798999786377,12.873592041015627
1766000032944983600,15.165983642578125,-0.6623982191085815,3.2609357833862305,0.6791587471961975,12.8923720703125
1766000032963763500,15.184763427734374,-1.012189865112305,1.129598617553711,1.9804625511169436,12.91115185546875
1766000032982543400,15.20354345703125,-0.3541083633899688,-1.8135805130004885,-1.6327855587005615,12.929931884765626
1766000033001323300,15.2223232421875,-1.4655985832214355,-1.2656335830688477,-1.124683141708374,12.948711669921876
1766000033020103200,15.241103271484375,-2.702933549880981,-2.4589805603027344,2.7505624294281006,12.967491699218751
1766000033038883000,15.259883056640623,-3.125092029571533,-2.779507160186768,4.024083137512207,12.986271484375
1766000033057663000,15.2786630859375,-2.9873671531677246,-2.268092632293701,2.0697338581085205,13.005051513671877
1766000033076443000,15.29744287109375,-2.5509138107299805,-2.5054774284362797,0.9087671041488647,13.023831298828126
1766000033095222800,15.316222900390626,-2.612069129943848,-3.076868057250977,0.2421080470085144,13.042611328125002
1766000033114002700,15.335002685546876,-2.923753261566162,-3.1685357093811035,-0.3506631851196289,13.061391113281251
1766000033132782300,15.3537822265625,-2.9144599437713623,-3.114520072937012,-0.2687909603118896,13.080170654296875
1766000033151562200,15.372562255859377,-2.791731357574463,-3.0531463623046875,-0.2362677454948425,13.098950683593753
1766000033170342100,15.391342041015625,-2.817979574203491,-3.083746910095215,-0.4314932823181152,13.11773046875
1766000033189122000,15.4101220703125,-2.6516096591949463,-2.9935789108276367,-0.3689175844192505,13.136510498046876
1766000033207902000,15.42890185546875,-2.489060401916504,-2.836888313293457,-0.1192823350429534,13.155290283203126
1766000033226681900,15.447681884765624,-2.430949687957764,-2.5968942642211914,0.0479667782783508,13.1740703125
1766000033245461800,15.466461669921877,-2.341655731201172,-2.202545642852783,0.3496071398258209,13.192850097656253
1766000033264241700,15.48524169921875,-2.147218942642212,-1.7326927185058594,0.1150504350662231,13.211630126953127
1766000033283021600,15.504021484375,-1.82574462890625,-1.3706388473510742,-0.3329724669456482,13.230409912109376
1766000033301801500,15.522801513671874,-1.57934308052063,-1.1134710311889648,-0.5710059404373169,13.24918994140625
1766000033320581400,15.541581298828126,-1.405076265335083,-0.9324216842651368,-0.5621939897537231,13.267969726562502
1766000033339361300,15.560361328125,-1.3892329931259155,-0.8831443786621094,-0.4166978895664215,13.286749755859375
1766000033358141200,15.57914111328125,-1.3631689548492432,-0.794163703918457,0.0312832593917846,13.305529541015625
1766000033376921000,15.597921142578125,-1.3354616165161133,-0.6201210021972656,0.2934937477111816,13.3243095703125
1766000033395701000,15.616700927734374,-1.4010343551635742,-0.2029666900634765,0.1246463656425476,13.34308935546875
1766000033414481000,15.63548095703125,-1.2778632640838623,0.2853631973266601,0.0901023149490356,13.361869384765626
1766000033433260800,15.6542607421875,-1.0879123210906982,0.7805061340332031,-0.2009627223014831,13.380649169921876
1766000033452040700,15.673040771484375,-0.8494970798492432,0.9666337966918944,-0.7363855242729187,13.399429199218751
1766000033470820600,15.691820556640623,-0.715909481048584,0.746882438659668,-1.0111628770828247,13.418208984375
1766000033489600300,15.710600341796876,-0.7140297889709473,0.3918113708496094,-0.7595114707946777,13.436988769531252
1766000033508380200,15.729380126953124,-0.7952327728271484,0.3060750961303711,-0.3763516545295715,13.4557685546875
1766000033527160000,15.74816015625,-0.980074405670166,0.4853057861328125,0.1843945980072021,13.474548583984376
1766000033545940000,15.76693994140625,-0.5730347633361816,0.7509489059448242,0.3934180736541748,13.493328369140626
1766000033564719900,15.785719970703123,-0.3535518646240234,0.8201570510864258,0.5533368587493896,13.5121083984375
1766000033583499800,15.804499755859377,-0.6162176132202148,0.8401927947998047,0.4269933700561523,13.530888183593753
1766000033602279700,15.82327978515625,-0.8749675750732422,0.787909984588623,0.4076330661773681,13.549668212890627
1766000033621059600,15.8420595703125,-1.1666474342346191,1.112802505493164,0.5109480619430542,13.568447998046876
1766000033639839500,15.860839599609376,-0.5611629486083984,2.1935181617736816,-0.1742697358131408,13.587228027343752
1766000033658619400,15.879619384765626,0.4036803245544433,3.717854022979736,-1.527139663696289,13.606007812500001
1766000033677399300,15.8983994140625,1.6751835346221924,4.262418270111084,-2.6681151390075684,13.624787841796875
1766000033696179200,15.91717919921875,2.7646074295043945,2.7535409927368164,-3.369006633758545,13.643567626953127
1766000033714959000,15.935958984375,1.1545095443725586,2.7979040145874023,-3.414681434631348,13.662347412109376
1766000033733739000,15.954739013671874,1.4852089881896973,3.791351318359375,-1.5926859378814695,13.68112744140625
1766000033752519000,15.973518798828126,1.9372005462646484,2.9414796829223637,-0.7067688703536987,13.699907226562502
1766000033771298800,15.992298828125,2.072654962539673,1.5081825256347656,-1.5273300409317017,13.718687255859376
1766000033790078700,16.01107861328125,1.6892056465148926,1.218292236328125,-1.8930096626281736,13.737467041015625
1766000033808858600,16.029858642578127,1.2221925258636477,1.696186065673828,-1.4863348007202148,13.756247070312503
1766000033827638500,16.048638427734375,0.8580703735351562,1.5546464920043943,-1.3167444467544556,13.77502685546875
1766000033846418400,16.06741845703125,1.2151226997375488,1.0094938278198242,-1.4643460512161257,13.793806884765624
1766000033865198300,16.0861982421875,1.2091608047485352,0.6097040176391602,-1.0315536260604858,13.812586669921876
1766000033883978200,16.104978271484374,1.0220861434936523,0.6588535308837891,-0.3539911806583404,13.83136669921875
1766000033902758100,16.123758056640625,1.5087080001831057,0.8804807662963867,-0.0513157844543457,13.850146484375001
1766000033921538000,16.1425380859375,1.706529140472412,1.180729866027832,-0.4758607447147369,13.868926513671875
1766000033940318000,16.16131787109375,1.9168405532836916,2.0602846145629883,-0.9748570919036864,13.887706298828126
1766000033959097900,16.180097900390624,1.4377272129058838,2.626607894897461,-1.0401391983032229,13.906486328125
1766000033977877800,16.198877685546876,1.3400046825408936,2.693367958068848,-1.64617657661438,13.925266113281252
1766000033996657700,16.21765771484375,1.0924749374389648,2.4189929962158203,-2.051133155822754,13.944046142578125
1766000034015437600,16.2364375,0.1835761070251464,1.9636297225952148,-2.2242236137390137,13.962825927734377
1766000034034217500,16.255217529296875,-0.1042871475219726,1.4722537994384766,-2.534354448318481,13.98160595703125
1766000034052997400,16.273997314453126,-0.0754556655883789,0.8605098724365234,-2.0028042793273926,14.000385742187502
1766000034071777300,16.29277734375,0.1681356430053711,-0.0322475433349609,-0.1777887940406799,14.019165771484376
1766000034090557200,16.31155712890625,-0.1597590446472168,-0.6766448020935059,1.7343758344650269,14.037945556640627
1766000034109337000,16.330337158203125,-0.2569694519042969,-0.8707880973815918,2.165637254714966,14.056725585937501
1766000034128117000,16.349116943359373,-0.0075640678405761,-0.8355002403259277,2.3048465251922607,14.07550537109375
1766000034146897000,16.36789697265625,0.2556791305541992,-0.6028323173522949,1.8398284912109373,14.094285400390627
