time,seconds_elapsed,z,y,x,t
1766000058147493000,40.3684931640625,1.9624885320663448,-0.0664577484130859,0.1379505395889282,38.09488159179688
1766000058166272800,40.387272705078125,2.501568078994751,-0.0384531021118164,-0.2441180348396301,38.1136611328125
1766000058185052400,40.40605249023437,3.157590866088867,-0.0247535705566406,-0.6689561009407043,38.13244091796875
1766000058203832000,40.42483203125,3.884758949279785,-0.0588617324829101,-1.0235278606414795,38.151220458984376
1766000058222612000,40.44361206054688,4.314363479614258,0.0438060760498046,-1.3956806659698486,38.17000048828126
1766000058241391600,40.4623916015625,4.286251068115234,0.4149103164672851,-1.7877976894378662,38.18878002929688
1766000058260171300,40.48117114257813,3.925083637237549,0.9120960235595704,-2.39581036567688,38.207559570312505
1766000058278951000,40.499950927734375,3.707015037536621,1.4345664978027344,-3.118614196777344,38.22633935546875
1766000058297730600,40.51873046875,3.276697158813477,1.9728927612304688,-3.792648315429688,38.24511889648438
1766000058316510200,40.53751025390625,2.59839391708374,2.7756118774414062,-3.421348571777344,38.263898681640626
1766000058335289900,40.556289794921874,2.453275442123413,2.7465734481811523,-1.9318227767944336,38.28267822265625
1766000058354069500,40.57506958007812,0.7820937633514404,2.4844417572021484,0.0773751139640808,38.3014580078125
1766000058372849400,40.59384936523438,-4.083898544311523,2.1911115646362305,0.6009177565574646,38.320237792968754
1766000058391629000,40.612629150390624,-4.355766773223877,2.108522415161133,-1.197621464729309,38.339017578125
1766000058419798500,40.64079858398438,-3.902398109436035,0.9972705841064452,0.1063149720430374,38.367187011718755
1766000058438578200,40.659578125,-3.217225313186645,-0.3121395111083984,1.3917651176452637,38.38596655273438
1766000058457357800,40.67835791015625,-2.474397659301758,-0.7293605804443359,1.599334478378296,38.40474633789063
1766000058476137500,40.69713745117188,-1.3608391284942627,-0.2882032394409179,1.3799079656600952,38.42352587890626
1766000058494917000,40.71591723632813,0.4815329313278198,0.1917762756347656,2.506838321685791,38.44230566406251
1766000058513696800,40.73469677734375,-0.2816945314407348,0.6355190277099609,4.622748374938965,38.46108520507813
1766000058532476700,40.7534765625,1.043717861175537,-0.1906099319458007,6.756640434265137,38.479864990234375
1766000058551256300,40.77225634765625,-11.0919828414917,-3.103151321411133,2.751931667327881,38.49864477539063
1766000058579425800,40.80042578125,-1.5514485836029053,2.2888851165771484,0.5249091386795044,38.526814208984376
1766000058598205400,40.81920532226562,-0.4544816613197326,-2.138087749481201,1.302089810371399,38.545593749999995
1766000058616985000,40.83798510742187,-0.0835862159729003,-2.0712132453918457,-1.4965016841888428,38.56437353515625
1766000058635764700,40.8567646484375,-0.2575709819793701,1.8392877578735352,-1.2442539930343628,38.583153076171875
1766000058663934200,40.88493432617187,-2.256996393203736,-1.5628786087036133,-0.9182981252670288,38.61132275390625
1766000058682713900,40.9037138671875,-2.387519836425781,-1.8547325134277344,-2.621535301208496,38.630102294921876
1766000058701493800,40.92249365234375,-2.437272310256958,-1.1348257064819336,-3.569117784500122,38.64888208007813
1766000058720273200,40.94127319335937,-2.927677154541016,-1.1769628524780271,-2.731160879135132,38.66766162109375
1766000058739053000,40.96005297851563,-3.4516689777374268,-1.816436767578125,-1.366474151611328,38.686441406250005
1766000058757832700,40.97883276367188,-3.613170623779297,-2.3346662521362305,-0.794248640537262,38.70522119140626
1766000058776612400,40.9976123046875,-3.545198440551758,-2.259945869445801,-0.898719310760498,38.72400073242188
1766000058795392000,41.01639208984375,-3.3205208778381348,-1.9469895362854004,-0.9100967645645142,38.742780517578126
1766000058814171600,41.035171630859374,-2.977574825286865,-1.857938289642334,-0.8836871981620789,38.76156005859375
1766000058832951300,41.05395141601562,-2.5596938133239746,-1.9736461639404297,-0.7686094045639038,38.78033984375
1766000058851731000,41.07273095703125,-2.2326807975769043,-1.9305734634399412,-0.6024991273880005,38.799119384765625
1766000058870510600,41.09151049804687,-1.8472977876663208,-1.558393478393555,-0.5223905444145203,38.81789892578125
1766000058889290200,41.11029028320313,-1.6773865222930908,-1.0999393463134766,-0.2634660303592682,38.836678710937505
1766000058908070000,41.12906982421875,-1.8330793380737305,-0.6438760757446289,-0.0445426106452941,38.85545825195313
1766000058926849800,41.14784985351562,-2.0036816596984863,-0.342498779296875,-0.1693429946899414,38.87423828125
1766000058945629200,41.16662915039063,-2.033143997192383,-0.1176948547363281,-0.4741883873939514,38.893017578125004
1766000058973799000,41.194798828125,-1.909616470336914,0.0802717208862304,-1.0504459142684937,38.92118725585938
1766000058992578600,41.21357861328125,-1.7380895614624023,0.1137819290161132,-1.24607515335083,38.93996704101563
1766000059011358200,41.23235815429688,-1.5765399932861328,0.3191146850585937,-1.2356127500534058,38.95874658203126
1766000059030137900,41.25113793945312,-1.3951692581176758,0.5789499282836914,-1.2296321392059326,38.9775263671875
1766000059058307300,41.27930737304688,-1.2373418807983398,0.6752834320068359,-1.4257351160049438,39.00569580078126
1766000059077087000,41.2980869140625,-1.199937343597412,0.5866489410400391,-1.5287678241729736,39.02447534179688
1766000059095866600,41.31686669921875,-1.087648868560791,0.5514736175537109,-1.490877389907837,39.04325512695313
1766000059114646300,41.335646240234375,-0.9275970458984376,0.5396575927734375,-1.144753098487854,39.06203466796875
1766000059133426000,41.35442602539062,-0.8240604400634766,0.6467113494873047,-0.7085107564926147,39.080814453125
1766000059152205600,41.37320556640625,-0.7049059867858887,0.7104949951171875,-0.2639409005641937,39.099593994140626
1766000059170985200,41.391985107421874,-0.618433952331543,0.8834342956542969,0.2736413776874542,39.11837353515625
1766000059189764900,41.41076489257812,-0.3134341239929199,1.1795244216918943,0.876720666885376,39.1371533203125
1766000059208544500,41.42954443359375,-0.0517120361328125,1.3070411682128906,1.5502562522888184,39.155932861328125
1766000059227324400,41.44832446289063,-0.2529554367065429,2.032102584838867,1.848478436470032,39.17471289062501
1766000059246104000,41.46710400390625,-0.4888358116149902,2.574391365051269,1.9292919635772705,39.19349243164063
1766000059264883700,41.4858837890625,1.9431962966918943,1.98226261138916,0.6311304569244385,39.212272216796876
1766000059293053200,41.51405322265625,1.2812578678131104,3.308557510375977,-1.9293426275253296,39.24044165039063
1766000059311832800,41.53283276367188,1.9916965961456297,4.5523223876953125,-0.6327248811721802,39.259221191406255
1766000059330612500,41.551612548828125,2.7242913246154785,1.9854707717895508,-0.035682737827301,39.2780009765625
1766000059349392100,41.57039208984375,2.738865375518799,0.2897481918334961,-0.0509406328201293,39.29678051757813
1766000059377561600,41.5985615234375,2.3512825965881348,0.9079036712646484,0.1182507872581482,39.32494995117188
1766000059396341200,41.61734130859375,2.322695255279541,1.2421693801879885,-0.2047524452209472,39.34372973632813
1766000059415121000,41.63612084960938,3.068287134170532,0.641657829284668,-1.4751701354980469,39.362509277343754
1766000059433900500,41.654900634765625,3.398147821426392,0.0431642532348632,-2.9827704429626465,39.3812890625
1766000059452680200,41.67368017578125,3.8621902465820312,0.3773479461669922,-3.8672244548797607,39.40006860351563
1766000059471459800,41.6924599609375,4.317990779876709,0.6958627700805664,-4.200991630554199,39.418848388671876
1766000059490239700,41.71123974609375,4.568504333496094,1.0008487701416016,-3.596643447875977,39.43762817382813
1766000059509019100,41.73001904296875,4.813002586364746,1.2886323928833008,-2.826629638671875,39.45640747070313
1766000059527799000,41.748799072265626,4.584285736083984,1.317279815673828,-1.87577223777771,39.475187500000004
1766000059555968500,41.77696850585937,3.3538928031921387,2.0897951126098637,-1.270196795463562,39.50335693359375
1766000059574748200,41.795748046875,2.964695692062378,2.635199546813965,-1.015705108642578,39.522136474609376
1766000059593527800,41.81452783203125,3.0145771503448486,3.1906700134277344,-0.1686334311962127,39.54091625976563
1766000059612307500,41.83330737304688,1.2330551147460938,3.169123649597168,1.3536170721054075,39.559695800781256
1766000059640477000,41.861476806640624,-1.9344849586486816,1.142838478088379,2.9107253551483154,39.587865234375
1766000059659256600,41.88025659179687,-2.882694721221924,0.0353374481201171,2.86043381690979,39.60664501953125
1766000059678036200,41.8990361328125,-1.8838520050048828,-0.1662435531616211,3.2638113498687744,39.625424560546875
1766000059696815900,41.91781591796875,-0.4640898704528808,0.0531044006347656,2.877227067947388,39.64420434570313
1766000059715595500,41.93659545898438,-0.3711826801300049,0.3266401290893554,1.9394724369049072,39.662983886718756
1766000059734375200,41.95537524414063,0.3145444393157959,1.6131258010864258,0.6436101794242859,39.68176367187501
1766000059753154800,41.97415478515625,-0.1998939514160156,2.8913707733154297,-0.4199434518814087,39.70054321289063
1766000059771934500,41.9929345703125,-1.0464003086090088,3.177152633666992,0.7573099732398987,39.71932299804688
1766000059790714000,42.011714111328125,-0.5807127952575684,2.055765151977539,4.618986129760742,39.7381025390625
1766000059809493800,42.03049365234375,0.6015408039093018,0.9734716415405272,6.54667854309082,39.75688208007813
1766000059828273400,42.0492734375,-12.075807571411133,-1.9456472396850584,-1.6680333614349363,39.775661865234376
1766000059847053000,42.06805297851562,-0.6522687077522278,2.408473014831543,-10.40382957458496,39.794441406249994
1766000059865832700,42.08683276367187,-2.594179153442383,0.2068443298339843,-0.9658212065696716,39.81322119140625
1766000059884612400,42.1056123046875,-0.7139641642570496,-3.6677942276000977,6.522375106811523,39.832000732421875
1766000059903392000,42.12439208984375,-1.5980865955352783,-0.5540075302124023,6.268360614776611,39.85078051757813
1766000059922171600,42.14317163085938,-4.759377479553223,1.4491214752197266,2.5511410236358643,39.869560058593756
1766000059940951300,42.161951416015626,-3.318115234375,0.416299819946289,-1.896702766418457,39.88833984375
1766000059959731200,42.180731201171874,-1.8027946949005127,-1.4478015899658203,-6.731716156005859,39.90711962890625
1766000059978510600,42.19951049804688,-1.967271089553833,-2.787371635437012,-6.820158004760742,39.925898925781254
1766000059997290200,42.218290283203125,-3.506266593933105,-2.9527711868286133,-2.696905851364136,39.9446787109375
1766000060016070100,42.23707006835937,-5.140967845916748,-2.5917654037475586,0.6883744597434998,39.96345849609375
1766000060034849800,42.25584985351563,-5.574805736541748,-2.867694854736328,2.937086582183838,39.982238281250005
1766000060053629200,42.27462915039062,-5.177318096160889,-3.3879170417785645,2.439366817474365,40.001017578125
1766000060081799000,42.302798828125,-4.19553279876709,-3.381433486938477,0.3229731619358063,40.02918725585938
1766000060100578300,42.321578369140624,-3.517280578613281,-2.960191249847412,-0.5577070713043213,40.047966796875
1766000060119358200,42.34035815429687,-3.0318727493286133,-2.6607446670532227,-1.1258304119110107,40.06674658203125
1766000060138137900,42.35913793945313,-2.692018747329712,-2.403736114501953,-0.8919013738632202,40.085526367187505
1766000060156917500,42.37791748046875,-2.4872541427612305,-2.1733341217041016,-0.1610389053821563,40.10430590820313
1766000060175697200,42.396697265625,-2.3758974075317383,-1.8861799240112305,0.4238665699958801,40.12308569335938
1766000060194476800,42.41547680664063,-2.3862109184265137,-1.3934202194213867,0.742416262626648,40.14186523437501
1766000060213256400,42.43425634765625,-2.240159034729004,-0.826568603515625,0.6513275504112244,40.16064477539063
