time,seconds_elapsed,z,y,x,t
1766000028160809700,10.381809814453124,1.353600025177002,0.2489273995161056,-2.6803219318389893,8.09411328125
1766000028179589600,10.400589599609376,1.362152099609375,0.5926915407180786,-2.8380777835845947,8.11289306640625
1766000028198369500,10.41936962890625,0.9693660736083984,-0.3086394369602203,-2.9686501026153564,8.131673095703125
1766000028217149200,10.438149169921877,0.6207149624824524,-0.7571669220924377,-2.844033718109131,8.150452636718752
1766000028235929000,10.45692919921875,0.307494044303894,-0.6724094152450562,-2.630689144134521,8.169232666015626
1766000028264099000,10.48509912109375,-0.1030070707201957,0.7440332770347595,-2.0331106185913086,8.197402587890625
1766000028282879000,10.50387890625,-0.3852266073226928,1.700036644935608,-1.5383102893829346,8.216182373046875
1766000028301658600,10.52265869140625,-0.5790234804153442,2.1328344345092773,-1.0535889863967896,8.234962158203125
1766000028320438500,10.5414384765625,-0.6524799466133118,1.9850051403045652,-0.6050615906715393,8.253741943359376
1766000028339218400,10.560218505859376,-0.5448150038719177,1.5685480833053589,-0.2070831656455993,8.272521972656252
1766000028357998300,10.578998291015624,-0.3840048611164093,1.1647664308547974,0.1276707351207733,8.2913017578125
1766000028376778200,10.5977783203125,-0.2470184415578842,0.8772017955780029,0.4085158109664917,8.310081787109375
1766000028395558100,10.61655810546875,-0.1124754771590232,0.7467821836471558,0.6487383842468262,8.328861572265625
1766000028414338000,10.635338134765624,0.0038942629471421,0.6354520916938782,0.8706350326538086,8.347641601562499
1766000028433117700,10.65411767578125,0.0318413265049457,0.539851725101471,1.0804671049118042,8.366421142578126
1766000028451897600,10.672897705078125,0.007559451740235,0.4851793646812439,1.283732295036316,8.385201171875
1766000028470677500,10.691677490234374,-0.0235946513712406,0.5093085169792175,1.4902045726776123,8.40398095703125
1766000028489457400,10.71045751953125,-0.065286174416542,0.5934551358222961,1.6780455112457275,8.422760986328125
1766000028508237300,10.7292373046875,-0.1150716543197631,0.6985238790512085,1.8400774002075195,8.441540771484375
1766000028527017200,10.748017333984375,-0.1625663936138153,0.8078686594963074,1.9708025455474851,8.46032080078125
1766000028545796900,10.766796875,-0.1993709951639175,0.8932369947433472,2.0801472663879395,8.479100341796876
1766000028564576800,10.78557666015625,-0.2427423894405365,0.9651663303375244,2.1580326557159424,8.497880126953126
1766000028583356700,10.804356689453124,-0.271147608757019,0.9998329281806946,2.20155668258667,8.51666015625
1766000028602136600,10.823136474609376,-0.3032180070877075,1.0063997507095337,2.213315725326538,8.535439941406251
1766000028620916500,10.84191650390625,-0.3455203771591186,0.9770781993865968,2.1810927391052246,8.554219970703125
1766000028639696400,10.8606962890625,-0.3936260044574737,0.92072594165802,2.1082470417022705,8.572999755859374
1766000028658476000,10.87947607421875,-0.4260018169879913,0.8539889454841614,2.017075538635254,8.591779541015626
1766000028677256000,10.898255859375,-0.4476875364780426,0.7701478004455566,1.9054399728775024,8.610559326171876
1766000028696035800,10.917035888671874,-0.4673879146575928,0.6768381595611572,1.7762420177459717,8.62933935546875
1766000028714815700,10.935815673828126,-0.479299783706665,0.5621483325958252,1.630398154258728,8.648119140625
1766000028733595600,10.954595703125,-0.4767036139965057,0.4613556265830993,1.4830269813537598,8.666899169921875
1766000028752375600,10.97337548828125,-0.4486038088798523,0.3837758004665375,1.342986226081848,8.685678955078126
1766000028771155500,10.992155517578125,-0.372245728969574,0.2922987937927246,1.204778075218201,8.704458984375
1766000028789935400,11.010935302734374,-0.2807687222957611,0.1076649203896522,1.065959095954895,8.72323876953125
1766000028808715000,11.029715087890626,-0.2181550860404968,-0.1362228393554687,0.9269872903823853,8.742018554687501
1766000028827495000,11.048494873046875,-0.1828776448965072,-0.3807214796543121,0.7791580557823181,8.76079833984375
1766000028846274800,11.06727490234375,-0.1489746421575546,-0.5717694163322449,0.630107045173645,8.779578369140625
1766000028865054700,11.0860546875,-0.1274416595697403,-0.6656898856163025,0.4853320717811584,8.798358154296876
1766000028883834600,11.104834716796876,-0.119958572089672,-0.7250964641571045,0.3501782417297363,8.817138183593752
1766000028902614500,11.123614501953124,-0.1117118969559669,-0.7287616729736328,0.2208276242017746,8.83591796875
1766000028921394400,11.14239453125,-0.1022434905171394,-0.7038689255714417,0.0818558782339096,8.854697998046875
1766000028940174000,11.161174072265624,-0.1014799103140831,-0.6537780165672302,-0.075441800057888,8.873477539062499
1766000028958954000,11.1799541015625,-0.1283579617738723,-0.531605064868927,-0.2576322257518768,8.892257568359375
1766000028977734000,11.19873388671875,-0.1654679924249649,-0.3365865051746368,-0.42959064245224,8.911037353515626
1766000028996513800,11.217513671875,-0.1961639523506164,-0.0855210721492767,-0.6962331533432007,8.929817138671876
1766000029015293700,11.236293701171874,-0.183030366897583,-0.0951421856880188,-0.7845031023025513,8.94859716796875
1766000029034073600,11.255073486328126,-0.0730746984481811,-0.3046688139438629,-0.6713404059410095,8.967376953125001
1766000029052853500,11.273853515625,0.0469602309167385,-0.3947713673114776,-0.5929969549179077,8.986156982421875
1766000029071633400,11.29263330078125,0.0791833475232124,-0.4934260249137878,-0.5682569742202759,9.004936767578124
1766000029090413000,11.3114130859375,-0.0008399390499107,-0.4769326746463775,-0.5056433081626892,9.023716552734376
1766000029109193000,11.33019287109375,-0.0297033004462718,-0.3579667508602142,-0.4302015304565429,9.042496337890626
1766000029127972900,11.348972900390624,0.0100029110908508,-0.1915061026811599,-0.3510945439338684,9.0612763671875
1766000029146752800,11.367752685546876,0.0611628368496894,-0.1563813835382461,-0.2838993966579437,9.08005615234375
1766000029165532700,11.38653271484375,0.1219438835978508,-0.249690979719162,-0.232128620147705,9.098836181640625
1766000029184312600,11.4053125,0.2118937224149704,-0.3874409794807434,-0.1725693047046661,9.117615966796876
1766000029203092500,11.424092529296876,0.2726747691631317,-0.5277871489524841,-0.1047633066773414,9.136395996093752
1766000029221872000,11.4428720703125,0.2645808160305023,-0.5962040424346924,-0.0340557098388671,9.155175537109375
1766000029240652000,11.461652099609376,0.2462548613548278,-0.4680751264095306,0.0138971740379929,9.173955566406251
1766000029259432000,11.480431884765624,0.2233474403619766,-0.2945895493030548,0.0797178521752357,9.192735351562499
1766000029278211800,11.4992119140625,0.1549305766820907,-0.1090393662452697,0.1660024970769882,9.211515380859375
1766000029296991700,11.51799169921875,0.1048396676778793,0.0598647482693195,0.2368628233671188,9.230295166015626
1766000029315771600,11.536771728515625,0.054901473224163,0.0760526657104492,0.295811265707016,9.2490751953125
1766000029334551600,11.555551513671874,0.0277179889380931,0.0450512766838073,0.3318522870540619,9.26785498046875
1766000029353331200,11.574331298828126,0.0439059063792228,0.0548251122236251,0.3430005609989166,9.286634765625001
1766000029372111000,11.593111083984375,0.1263726502656936,0.0926987305283546,0.3689623177051544,9.30541455078125
1766000029390891000,11.61189111328125,0.2401462197303772,0.0267253331840038,0.3769035637378692,9.324194580078125
1766000029409671000,11.6306708984375,0.3533089160919189,-0.2626718580722809,0.3732383847236633,9.342974365234376
1766000029428450800,11.649450927734376,0.4441750645637512,-0.7568614482879639,0.3572031855583191,9.361754394531252
1766000029447230700,11.668230712890624,0.5570323467254639,-1.1343759298324585,0.3245218992233276,9.3805341796875
1766000029466010600,11.6870107421875,0.6923388838768005,-1.3590214252471924,0.2695440948009491,9.399314208984375
1766000029484790500,11.70579052734375,0.7534253597259521,-1.4430153369903564,0.1789833754301071,9.418093994140625
1766000029503570200,11.724570068359377,0.7297543287277222,-1.2131774425506592,0.1186604797840118,9.436873535156252
1766000029522350000,11.74335009765625,0.709595799446106,-0.7896954417228699,0.0792597085237503,9.455653564453126
1766000029541130000,11.7621298828125,0.6960040330886841,-0.2328922003507614,0.0317649692296981,9.474433349609376
1766000029559910000,11.780909912109376,0.6584358811378479,0.3692677617073059,-0.0427605360746383,9.493213378906251
1766000029578689800,11.799689697265626,0.6341540217399597,0.8329141139984131,-0.1884517818689346,9.5119931640625
1766000029597469700,11.8184697265625,0.6350703239440918,0.8796452879905701,-0.4465421438217163,9.530773193359375
1766000029616249600,11.83724951171875,0.6344594359397888,0.5384773015975952,-0.8266527652740479,9.549552978515626
1766000029635029500,11.856029541015625,0.6303361058235168,-0.061239194124937,-1.3016000986099243,9.5683330078125
1766000029653809200,11.87480908203125,0.627434492111206,-0.6186532974243164,-1.8298454284667969,9.587112548828125
1766000029672589000,11.893589111328126,0.654617965221405,-0.9462295174598694,-2.3089160919189453,9.605892578125001
1766000029691369000,11.912368896484375,0.663780927658081,-1.3807071447372437,-2.039677381515503,9.62467236328125
1766000029710148900,11.93114892578125,0.0025198173243552,-0.8778126835823059,-1.6733113527297974,9.643452392578125
1766000029728928800,11.9499287109375,-0.3186423480510711,0.7481566667556763,-2.333350658416748,9.662232177734376
1766000029747708700,11.968708740234376,0.7170788645744324,0.5070177912712097,-2.545626163482666,9.681012207031252
1766000029766488600,11.987488525390624,0.9107230305671692,0.1649334877729416,-2.6392412185668945,9.6997919921875
1766000029785268500,12.0062685546875,0.6807324290275574,-1.256090760231018,-2.731787204742432,9.718572021484375
1766000029804048100,12.025048095703124,1.0165553092956543,-2.145509719848633,-2.6662721633911133,9.737351562499999
1766000029822828000,12.043828125,1.166980862617493,-1.979812741279602,-2.495535373687744,9.756131591796875
1766000029841608000,12.06260791015625,1.047556757926941,-1.2818996906280518,-2.1781911849975586,9.774911376953126
1766000029860387800,12.081387939453125,0.8042798638343811,-0.4744892120361328,-1.7806708812713623,9.79369140625
1766000029879167700,12.100167724609374,0.455781489610672,0.3194822669029236,-1.373376727104187,9.81247119140625
1766000029897947600,12.11894775390625,0.1419496983289718,1.0474803447723389,-1.010064959526062,9.831251220703125
1766000029916727600,12.1377275390625,-0.0391717031598091,1.439502835273743,-0.7046325206756592,9.850031005859375
1766000029935507500,12.156507568359377,-0.1532506942749023,1.4576760530471802,-0.4314232468605041,9.868811035156252
1766000029954287400,12.175287353515625,-0.2238055765628814,1.2977821826934814,-0.1922696828842163,9.8875908203125
1766000029973067000,12.19406689453125,-0.2650389671325683,1.0418298244476318,0.0268780495971441,9.906370361328126
1766000029991847000,12.212846923828126,-0.2928332984447479,0.832608699798584,0.2417497336864471,9.925150390625001
1766000030010626800,12.231626708984376,-0.3294851779937744,0.7446441650390625,0.4558578431606293,9.94393017578125
1766000030029406700,12.25040673828125,-0.3655261993408203,0.7866411209106445,0.6656898856163025,9.962710205078125
1766000030048186600,12.2691865234375,-0.3983601927757263,0.9288198947906494,0.8770490884780884,9.981489990234376
1766000030066966500,12.287966552734376,-0.4350120723247528,1.076649188995361,1.091004490852356,10.000270019531252
1766000030085746400,12.306746337890624,-0.4734965562820434,1.2108867168426514,1.2974767684936523,10.0190498046875
1766000030104526000,12.325526123046876,-0.5081631541252136,1.3096940517425537,1.4938697814941406,10.037829589843751
1766000030123306000,12.344305908203124,-0.5127446055412292,1.3408482074737549,1.6630793809890747,10.056609374999999
1766000030142086000,12.3630859375,-0.4996110200881958,1.297629475593567,1.795026183128357,10.075389404296875
