time,seconds_elapsed,z,y,x,t
1766000049180174300,31.40117431640625,-0.0091385841369628,0.0896692276000976,0.4034311175346374,29.127562744140626
1766000049198954000,31.4199541015625,0.0026761293411254,0.0798873901367187,0.3069474101066589,29.146342529296874
1766000049217734000,31.43873388671875,0.0269663333892822,0.0675430297851562,0.1738561987876892,29.165122314453125
1766000049236513500,31.457513427734376,0.1591911315917968,0.0303115844726562,0.2397113442420959,29.18390185546875
1766000049255293400,31.47629345703125,0.2941389083862304,0.0281038284301757,0.2100588679313659,29.202681884765624
1766000049274073000,31.49507299804688,0.3956291079521179,0.1103677749633789,-0.0507895350456237,29.221461425781253
1766000049292853000,31.51385302734375,0.5600468516349792,0.0407733917236328,-0.2243026047945022,29.240241455078124
1766000049311632600,31.53263256835937,0.7821614146232605,-0.0684967041015625,-0.0711482167243957,29.259020996093746
1766000049330412500,31.55141259765625,1.082505702972412,-0.0382776260375976,-0.1025349497795105,29.277801025390623
1766000049349192200,31.570192138671874,1.4011220932006836,-0.0431175231933593,-0.5134412050247192,29.29658056640625
1766000049367972000,31.58897216796875,1.7919186353683472,-0.0101175308227539,-0.8756805062294006,29.315360595703122
1766000049386751700,31.60775170898437,2.5186781883239746,0.0381078720092773,-1.2635881900787354,29.334140136718744
1766000049405531600,31.62653173828125,3.4287638664245605,0.08758544921875,-2.152402877807617,29.352920166015625
1766000049424311300,31.64531127929688,4.859898567199707,0.1770763397216797,-3.5637872219085693,29.371699707031254
1766000049443091200,31.66409130859375,6.150127410888672,0.1273326873779297,-5.297433376312256,29.390479736328125
1766000049461870800,31.682870849609376,7.354743957519531,0.1759777069091797,-7.200270652770996,29.40925927734375
1766000049480650800,31.701650634765624,6.491538047790527,0.1070241928100586,-8.985518455505371,29.428039062499998
1766000049499430400,31.720430419921875,1.19661283493042,0.6617307662963867,-8.412678718566895,29.44681884765625
1766000049518210300,31.739210205078123,-3.822254180908203,1.9630098342895508,-6.2432861328125,29.465598632812497
1766000049536990000,31.75798999023437,-5.844028472900391,2.4135684967041016,-2.5684335231781006,29.484378417968745
1766000049555769600,31.77676953125,-5.757204055786133,2.012495994567871,2.5466792583465576,29.503157958984374
1766000049574549500,31.795549560546878,-3.9247970581054688,1.2693986892700195,4.780797958374023,29.521937988281252
1766000049593329400,31.81432934570313,-2.426543712615967,-0.184183120727539,6.141900062561035,29.540717773437503
1766000049612109000,31.833109130859373,-1.5695748329162598,-1.213914394378662,6.69089412689209,29.559497558593748
1766000049630889000,31.851888916015625,-2.5432937145233154,-1.7251324653625488,4.442694187164307,29.57827734375
1766000049649668600,31.87066870117188,-2.552218198776245,-1.587794303894043,1.453087568283081,29.597057128906254
1766000049668448300,31.8894482421875,-2.404242753982544,-0.7848520278930664,-0.6894329190254211,29.615836669921872
1766000049687228200,31.908228271484376,-0.2458209991455078,0.6017704010009766,0.3274511098861694,29.63461669921875
1766000049706007800,31.9270078125,-4.385061740875244,1.7198781967163086,3.68487286567688,29.653396240234375
1766000049724787700,31.94578759765625,-8.360841751098633,4.135611534118652,5.429295063018799,29.672176025390623
1766000049743567400,31.9645673828125,-1.0985488891601562,3.43160343170166,8.12319564819336,29.690955810546875
1766000049762347300,31.98334716796875,-4.708151817321777,2.1344776153564453,1.1467673778533936,29.709735595703123
1766000049781127000,32.002126953125,2.892984628677368,2.921422004699707,0.9772857427597046,29.728515380859374
1766000049799906800,32.02090673828125,3.754971027374268,0.8531970977783203,3.865772247314453,29.747295166015622
1766000049818686500,32.0396865234375,5.449240684509277,-2.8448309898376465,5.383457183837891,29.766074951171877
1766000049837466400,32.05846630859375,4.615198135375977,-2.2686662673950195,1.308450698852539,29.784854736328125
1766000049856246000,32.07724609375,0.2901666164398193,-1.8474831581115725,-4.712601184844971,29.803634521484373
1766000049875026000,32.09602587890625,-0.4540855884552002,-2.805312156677246,-7.099566459655762,29.82241430664062
1766000049893805600,32.1148056640625,-0.8391993045806885,-3.4405994415283203,-4.807517051696777,29.841194091796876
1766000049912585500,32.13358544921875,-2.1464614868164062,-2.893229961395264,-1.204533576965332,29.859973876953124
1766000049931365000,32.152365234375,-2.940927267074585,-1.8004422187805176,0.8478930592536926,29.87875366210937
1766000049950144800,32.17114477539062,-3.833216667175293,-0.8315944671630859,2.285205841064453,29.897533203124997
1766000049968924700,32.18992456054688,-4.400795936584473,-1.0158576965332031,2.342923641204834,29.916312988281252
1766000049987704300,32.208704345703126,-4.510833740234375,-1.8147940635681152,1.543970227241516,29.9350927734375
1766000050006484200,32.227484130859374,-4.271885871887207,-2.2052206993103027,0.2881388068199157,29.953872558593748
1766000050025263900,32.24626391601562,-3.873594045639038,-2.016422748565674,-0.3393948674201965,29.972652343749996
1766000050044043800,32.26504370117188,-3.959043025970459,-1.7965011596679688,-0.964899480342865,29.99143212890625
1766000050062823400,32.283823486328124,-3.842262744903565,-1.8143105506896973,-1.1824951171875,30.0102119140625
1766000050081603300,32.30260327148437,-3.6071600914001465,-2.047013282775879,-1.1628894805908203,30.028991699218746
1766000050100383000,32.32138305664063,-3.0646915435791016,-2.125768184661865,-1.3203670978546145,30.047771484375
1766000050119162600,32.34016259765625,-2.449989080429077,-1.99284029006958,-1.0680066347122192,30.066551025390627
1766000050137942500,32.35894262695312,-2.256598949432373,-1.6604933738708496,-0.754518985748291,30.085331054687497
1766000050156722200,32.37772216796875,-2.434276580810547,-1.0857343673706057,-0.4767873585224151,30.104110595703123
1766000050175502000,32.396502197265626,-2.33198618888855,-0.5501508712768555,-0.322550892829895,30.122890625
1766000050194281700,32.41528173828125,-2.229849338531494,-0.1750516891479492,-0.3480627536773681,30.141670166015626
1766000050213061600,32.4340615234375,-2.2324059009552,0.1185340881347656,-0.6278189420700073,30.160449951171874
1766000050231841300,32.45284130859375,-2.3246567249298096,0.103952407836914,-1.0225573778152466,30.17922973632812
1766000050250621200,32.47162109375,-1.9995412826538088,0.0651607513427734,-1.509941339492798,30.198009521484376
1766000050269400800,32.49040087890625,-1.7657301425933838,0.0058412551879882,-1.470979928970337,30.216789306640624
1766000050288180700,32.5091806640625,-1.9071974754333496,0.3123760223388672,-1.3423001766204834,30.235569091796872
1766000050306960400,32.52796044921875,-1.6668462753295898,0.7748603820800781,-1.4254050254821775,30.254348876953127
1766000050325740000,32.54673999023437,-1.4934625625610352,0.8112545013427734,-1.2398535013198853,30.273128417968746
1766000050344520000,32.56552001953125,-1.2075300216674805,0.655980110168457,-0.7615206837654114,30.291908447265623
1766000050363299600,32.584299560546874,-1.0027718544006348,0.6292781829833984,-0.306002527475357,30.31068798828125
1766000050382079500,32.60307958984375,-0.7975692749023438,0.7676706314086914,0.2428355067968368,30.329468017578126
1766000050400859100,32.62185913085938,-0.6960296630859375,0.983224868774414,0.8230966329574585,30.34824755859375
1766000050419638800,32.640638671875,-0.7761473655700684,1.3229265213012695,1.2530258893966677,30.367027099609377
1766000050438418700,32.65941870117187,-0.9802656173706056,2.3939599990844727,1.7872474193572998,30.385807128906247
1766000050457198300,32.6781982421875,-0.2995567321777344,3.156023979187012,1.848985195159912,30.404586669921873
1766000050475978200,32.696978271484376,1.859532117843628,2.8399572372436523,1.0267709493637085,30.42336669921875
1766000050494758000,32.7157578125,3.5233263969421387,1.9305429458618164,-1.7472351789474487,30.442146240234376
1766000050513537800,32.73453784179687,2.6477532386779785,3.142417907714844,-3.4859936237335205,30.460926269531246
1766000050532317400,32.7533173828125,1.7340922355651855,3.672350883483887,-2.756782293319702,30.47970581054687
1766000050551097300,32.772097412109375,2.195261240005493,1.985213279724121,-2.187763929367065,30.49848583984375
1766000050569877000,32.790876953125,2.3122591972351074,0.3499402999877929,-2.758298397064209,30.517265380859374
1766000050588656600,32.80965673828125,1.7142183780670166,0.5882797241210938,-2.900926351547241,30.536045166015622
1766000050607436500,32.8284365234375,1.0892033576965332,1.154707908630371,-2.457965135574341,30.554824951171877
1766000050626216200,32.84721630859375,0.970271110534668,0.8678913116455078,-2.113614320755005,30.573604736328125
1766000050644996000,32.86599609375,1.605920433998108,0.0032567977905273,-1.7457771301269531,30.592384521484373
1766000050663775700,32.884775634765624,1.7811768054962158,-0.5898799896240234,-0.4466443657875061,30.6111640625
1766000050682555400,32.90355541992187,1.1611394882202148,-0.5308027267456055,1.414189100265503,30.629943847656246
1766000050701335300,32.92233520507813,0.2780461311340332,-0.1900224685668945,2.2611398696899414,30.6487236328125
1766000050720115000,32.941114990234375,-0.2701740264892578,-0.2067031860351562,3.007474184036255,30.66750341796875
1766000050738894800,32.95989477539062,-0.8395967483520508,-0.2323255538940429,2.723952054977417,30.686283203124997
1766000050757674500,32.97867456054688,-1.2537455558776855,-0.1536855697631836,1.697081208229065,30.705062988281252
1766000050776454400,32.997454345703126,-1.2155563831329346,-0.0398550033569335,0.5852306485176086,30.7238427734375
1766000050795234000,33.016234130859374,-0.843986988067627,0.1283931732177734,-0.277963638305664,30.742622558593748
1766000050814013700,33.035013671875,-0.4182727336883545,0.1571016311645507,-0.5156229138374329,30.761402099609374
1766000050832793600,33.05379370117188,-0.1329419612884521,0.0514812469482421,-0.3635115027427673,30.78018212890625
1766000050851573200,33.0725732421875,-0.0700657367706298,-0.0406627655029296,-0.0877174735069274,30.798961669921876
1766000050870353200,33.09135327148437,-0.0561573505401611,0.0548162460327148,0.023254070430994,30.817741699218747
1766000050889132800,33.1101328125,-0.0820376873016357,0.1360940933227539,-0.0057551525533199,30.836521240234372
1766000050907912700,33.12891259765625,-0.0089752674102783,0.055551528930664,-0.131612479686737,30.855301025390627
1766000050926692400,33.1476923828125,0.0937507152557373,-0.1341018676757812,-0.1126496940851211,30.874080810546875
1766000050945472000,33.16647192382813,0.0581450462341308,-0.2010526657104492,-0.0424894616007804,30.8928603515625
1766000050964252000,33.185251953125,0.0500843524932861,-0.2292566299438476,0.0480955503880977,30.91164038085937
1766000050983031600,33.20403149414062,-0.0463755130767822,-0.1903333663940429,0.1414846628904342,30.930419921874996
1766000051001811500,33.2228115234375,-0.0598447322845459,-0.1526575088500976,0.1850189417600631,30.949199951171874
1766000051020591000,33.241591064453125,0.0141729116439819,-0.1261129379272461,0.1184554174542427,30.9679794921875
1766000051039370800,33.26037084960937,0.0941274166107177,-0.1740560531616211,-0.0478572100400924,30.986759277343747
1766000051058150700,33.27915063476563,0.2581865787506103,-0.2714147567749023,-0.1893833875656128,31.005539062500002
1766000051076930300,33.29793041992188,0.5109163522720337,-0.2073736190795898,-0.2771745324134826,31.024318847656257
1766000051095710200,33.316710205078124,0.8119428157806396,-0.2534208297729492,-0.4530075788497925,31.043098632812498
1766000051114489900,33.33548974609375,1.0156304836273191,-0.3531045913696289,-0.7991490960121155,31.061878173828124
1766000051133269500,33.35426953125,1.2570250034332275,-0.1325340270996093,-0.7445124387741089,31.08065795898437
1766000051152049400,33.37304931640625,1.2280023097991943,-0.009683609008789,-0.569905161857605,31.099437744140626
