time,seconds_elapsed,z,y,x,t
1766000052166155500,34.38715551757812,4.897352695465088,4.893482208251953,-5.500939846038818,32.1135439453125
1766000052184935400,34.40593530273438,7.65913200378418,3.0436110496520996,-5.500939846038818,32.132323730468755
1766000052203715000,34.424715087890625,4.622342586517334,4.893482208251953,-8.628877639770508,32.151103515625
1766000052222494700,34.44349462890625,0.6173679828643799,1.193739891052246,-4.045986652374268,32.16988305664063
1766000052241274600,34.46227465820313,-2.2586898803710938,-1.35361909866333,-0.2560714781284332,32.188663085937506
1766000052260054300,34.48105419921875,-3.195246696472168,-3.504830837249756,1.3788819313049316,32.207442626953124
1766000052278834200,34.499834228515624,-2.842651844024658,-4.20654821395874,2.6903305053710938,32.22622265625
1766000052297613800,34.51861376953125,-1.529970407485962,-2.667841911315918,4.19375467300415,32.24500219726563
1766000052316393500,34.5373935546875,-0.5394792556762695,-0.5451602935791016,4.8121490478515625,32.263781982421875
1766000052335173400,34.55617333984375,-0.7228617668151855,1.064727783203125,4.151387691497803,32.28256176757813
1766000052353953000,34.574953125,-0.957228183746338,1.0309362411499023,2.098982095718384,32.30134155273438
1766000052372732700,34.593732666015626,-0.666940450668335,0.4296798706054687,0.3217551708221435,32.320121093750004
1766000052391512600,34.6125126953125,-0.2486326694488525,0.1324243545532226,-1.433157205581665,32.33890112304688
1766000052410292200,34.63129223632812,0.3945000171661377,0.1183853149414062,-2.506831645965576,32.3576806640625
1766000052429072000,34.65007177734375,0.4757928848266601,0.1561880111694336,-2.670872926712036,32.376460205078125
1766000052447851800,34.668851806640625,0.2175121307373047,0.0514984130859375,-1.8732167482376096,32.395240234375
1766000052466631400,34.68763134765625,-0.3513672351837158,-0.119175910949707,-0.7944963574409485,32.41401977539063
1766000052485411000,34.7064111328125,-0.553987979888916,-0.0482339859008789,-0.1495311260223388,32.432799560546876
1766000052504191000,34.72519091796875,-0.4292175769805908,-0.0731649398803711,0.1829977631568908,32.45157934570313
1766000052522970600,34.743970703125,-0.1134047508239746,-0.088170051574707,0.474884569644928,32.47035913085938
1766000052541750300,34.762750244140626,0.308383584022522,-0.252079963684082,0.2852376103401184,32.489138671875004
1766000052560530200,34.7815302734375,0.5309454202651978,-0.3934526443481445,0.1844881176948547,32.507918701171874
1766000052579309800,34.80030981445312,0.6360710859298706,-0.0502567291259765,0.1849201917648315,32.5266982421875
1766000052598089500,34.81908935546875,1.0299582481384275,0.1722497940063476,0.5175445675849915,32.545477783203125
1766000052616869400,34.837869384765625,1.0593278408050537,0.075108528137207,0.4632925391197204,32.5642578125
1766000052635649000,34.85664892578125,1.0109354257583618,-0.044443130493164,0.2526071071624756,32.58303735351563
1766000052654428700,34.8754287109375,1.0278828144073486,-0.1209592819213867,0.1944397091865539,32.601817138671876
1766000052673208600,34.89420849609375,1.1552517414093018,-0.1599073410034179,0.0143526792526245,32.62059692382813
1766000052691988200,34.91298828125,1.0081299543380735,-0.1148300170898437,-0.1023582220077514,32.63937670898438
1766000052710767900,34.93176782226563,0.7956833839416504,-0.0807867050170898,-0.1109048128128051,32.658156250000005
1766000052729547800,34.9505478515625,0.5126243829727173,-0.0331888198852539,0.0953158140182495,32.676936279296875
1766000052748327400,34.96932739257812,0.2511308193206787,-0.0527534484863281,0.2340703010559082,32.6957158203125
1766000052767107000,34.98810717773438,0.1752947568893432,-0.0355854034423828,0.3145415186882019,32.714495605468755
1766000052785887000,35.006886962890626,0.3561532497406006,-0.028273582458496,0.4191839098930359,32.733275390625
1766000052804666600,35.02566650390625,0.3889293670654297,-0.070718765258789,0.255746841430664,32.75205493164063
1766000052823446300,35.0444462890625,0.5350170135498047,-0.0385208129882812,0.1741523146629333,32.77083471679688
1766000052842226200,35.06322607421875,0.5627551674842834,0.0560598373413085,0.3990610539913177,32.789614501953125
1766000052861005800,35.082005859375,0.4686238169670105,0.0645980834960937,0.3948637843132019,32.80839428710938
1766000052879785500,35.10078540039063,0.2675747871398926,-0.08734130859375,0.4605486989021301,32.827173828125005
1766000052898565400,35.1195654296875,0.1069719791412353,-0.030405044555664,0.6129788160324097,32.845953857421875
1766000052917345000,35.13834497070312,0.0009713172912597,0.0047769546508789,0.5636916756629944,32.8647333984375
1766000052936124700,35.15712475585938,-0.05597984790802,-0.0756406784057617,0.5280147790908813,32.883513183593756
1766000052954904600,35.175904541015626,0.0289061069488525,-0.086578369140625,0.500417947769165,32.902292968750004
1766000052973684200,35.194684326171874,0.2040913105010986,-0.1413192749023437,0.4285727143287658,32.92107275390625
1766000052992464000,35.2134638671875,0.3246549367904663,-0.1095619201660156,0.2316741198301315,32.93985229492188
1766000053011243800,35.23224389648438,0.5455674529075623,-0.0701417922973632,-0.0537795200943946,32.958632324218755
1766000053030023400,35.2510234375,0.7669105529785156,-0.0335302352905273,-0.101214163005352,32.97741186523438
1766000053048803000,35.26980297851563,0.984933078289032,-0.0182628631591796,-0.0924980789422988,32.996191406250006
1766000053067583000,35.2885830078125,1.1607154607772827,0.0371999740600585,-0.2466529607772827,33.014971435546876
1766000053086362600,35.307362548828124,1.5183534622192385,0.0273056030273437,-0.5729577541351318,33.0337509765625
1766000053105142300,35.32614233398437,2.028045892715454,0.0244674682617187,-0.9270944595336914,33.05253076171875
1766000053123922200,35.34492211914063,2.8770480155944824,-0.0669841766357421,-1.1749953031539917,33.071310546875004
1766000053142701800,35.363701904296875,4.186472892761231,-0.2793560028076172,-1.912173867225647,33.09009033203125
1766000053161481500,35.3824814453125,6.130338668823242,-0.3892459869384765,-3.2644710540771484,33.10886987304688
1766000053180261000,35.40126123046875,8.230796813964844,-0.3038187026977539,-4.717210292816162,33.127649658203126
1766000053199041000,35.420041015625,9.053691864013672,-0.1255531311035156,-5.613338947296143,33.14642944335938
1766000053217820700,35.43882055664063,6.167645454406738,0.8812332153320312,-6.053642749786377,33.165208984375006
1766000053236600600,35.4576005859375,1.105241775512695,2.9903078079223637,-5.8777618408203125,33.18398901367188
1766000053255380200,35.476380126953124,-1.0706417560577393,4.777266502380371,-2.1814842224121094,33.2027685546875
1766000053274159900,35.49515991210937,-3.474001407623291,4.862157821655273,0.9802049994468688,33.22154833984375
1766000053292939500,35.513939453125,-9.642541885375977,3.929375648498535,3.2558958530426025,33.240327880859375
1766000053311719400,35.532719482421875,-9.307204246520996,2.140538215637207,1.844820857048035,33.25910791015625
1766000053330499000,35.5514990234375,-6.557709693908691,-0.318084716796875,2.2428243160247803,33.27788745117188
1766000053349278700,35.57027880859375,-4.148366928100586,-2.072847843170166,3.689184188842773,33.296667236328126
1766000053368058600,35.58905859375,-3.884398221969605,-2.5406923294067383,3.5712058544158936,33.31544702148438
1766000053386838300,35.60783837890625,-1.9338005781173704,0.142862319946289,3.623816967010498,33.33422680664063
1766000053405618000,35.62661791992188,-4.547768592834473,0.0543689727783203,5.500943660736084,33.353006347656255
1766000053424397600,35.6453974609375,-9.026896476745604,0.4111528396606445,-4.751492023468018,33.37178588867188
1766000053443177500,35.66417749023437,-2.4832260608673096,1.4821577072143557,-2.729532241821289,33.39056591796875
1766000053461957000,35.68295703125,0.8383746147155762,-0.5882139205932617,7.202000617980957,33.409345458984376
1766000053480736800,35.70173681640625,-2.3488194942474365,-2.734098434448242,2.236234188079834,33.42812524414063
1766000053499516700,35.7205166015625,-5.436117172241211,-3.198836326599121,7.40109920501709,33.44690502929688
1766000053518296300,35.73929638671875,-7.402904033660889,-5.4835638999938965,-3.368002891540528,33.46568481445313
1766000053537076000,35.758075927734374,-4.28705644607544,-3.109860420227051,-3.368002891540528,33.48446435546875
1766000053555856000,35.77685595703125,2.4966928958892822,-1.309311866760254,-3.368002891540528,33.50324438476563
1766000053574635500,35.79563549804688,2.1667394638061523,-2.5082216262817383,-4.930665016174316,33.522023925781255
1766000053593415200,35.814415283203125,-0.7693753242492676,-1.856250286102295,-3.107354164123535,33.5408037109375
1766000053612194800,35.83319482421875,-2.0277962684631348,-1.2145705223083496,-1.6670639514923096,33.55958325195313
1766000053630974700,35.851974609375,-2.5130860805511475,-1.2481775283813477,0.900336742401123,33.578363037109376
1766000053649754400,35.87075439453125,-2.768366813659668,-1.4434309005737305,1.9385004043579104,33.597142822265624
1766000053668534000,35.88953393554687,-3.3219423294067383,-1.411020278930664,1.4638725519180298,33.61592236328125
1766000053687314000,35.90831396484375,-3.72896671295166,-1.3020219802856443,0.8732398748397827,33.63470239257813
1766000053706093600,35.927093505859375,-3.311910629272461,-1.4356088638305664,0.8331317901611328,33.65348193359375
1766000053724873200,35.94587329101562,-3.088303327560425,-1.5751953125,0.7436625361442566,33.67226171875
1766000053743653000,35.96465307617188,-2.814249992370605,-1.5023307800292969,0.6105772852897644,33.691041503906256
1766000053762432800,35.983432861328126,-2.790860652923584,-1.2981185913085938,0.3618285059928894,33.7098212890625
1766000053781212400,36.00221240234375,-2.610660552978516,-1.0604677200317385,0.2562085092067718,33.72860083007813
1766000053799992000,36.02099194335938,-2.0644493103027344,-0.7301750183105469,-0.1795645356178283,33.747380371093755
1766000053818772000,36.03977197265625,-1.94508695602417,-0.5278911590576172,-0.4393173456192016,33.766160400390625
1766000053837551600,36.05855151367187,-2.0268352031707764,-0.3574867248535156,-0.7083778977394104,33.78493994140625
1766000053856331300,36.07733129882813,-2.030243396759033,-0.205357551574707,-0.8333451151847839,33.803719726562505
1766000053875111000,36.09611083984375,-1.9508860111236568,-0.1023569107055664,-0.7345293760299683,33.82249926757813
1766000053893890800,36.11489086914062,-1.9250566959381104,-0.1069002151489257,-0.6724555492401123,33.841279296875
1766000053912670500,36.13367041015625,-1.6712675094604492,0.0037307739257812,-0.8775899410247803,33.86005883789063
1766000053931450000,36.1524501953125,-1.4657726287841797,0.4420948028564453,-1.145404815673828,33.878838623046875
1766000053950229800,36.17122973632812,-1.165297031402588,0.8984766006469727,-1.2311574220657349,33.8976181640625
1766000053969009700,36.190009765625,-0.9785137176513672,0.9949378967285156,-0.8792189955711365,33.91639819335938
1766000053987789300,36.20878930664063,-0.7089023590087891,0.9150638580322266,-0.2578284740447998,33.93517773437501
1766000054006569000,36.22756884765625,-0.5258893966674805,1.0006046295166016,0.4680970311164856,33.95395727539063
1766000054025348900,36.24634887695313,-0.3961296081542969,1.4350261688232422,1.020311713218689,33.972737304687506
1766000054044128500,36.26512841796875,-0.2666282653808594,2.125618934631348,1.5221807956695557,33.991516845703124
1766000054062908200,36.283908203125,0.0017247200012207,2.544454574584961,1.684954285621643,34.01029663085938
1766000054081687800,36.30268774414063,2.1204538345336914,2.272773742675781,0.9235790371894836,34.029076171875005
1766000054100467700,36.3214677734375,2.9282114505767822,2.187097549438477,-0.5172617435455322,34.047856201171875
1766000054119247400,36.34024731445312,1.6767661571502686,4.176995277404785,-0.5238808989524841,34.0666357421875
1766000054138027000,36.35902709960938,2.608203887939453,3.3622961044311523,-0.5131952166557312,34.085415527343756
