time,seconds_elapsed,z,y,x,t
1766000020052611600,2.273611572265625,-4.392251014709473,0.0001592636108398,-2.238178014755249,0.0
1766000020071391200,2.29239111328125,-2.099463939666748,4.763249397277832,1.3966619968414309,0.018779541015625068
1766000020090171100,2.311171142578125,-4.967283725738525,3.305644989013672,6.564456939697266,0.037559570312500234
1766000020108951000,2.329950927734375,-0.4799495935440063,-1.4544048309326172,6.100823402404785,0.05633935546874991
1766000020127730700,2.348730712890625,2.3808183670043945,-0.0420570373535156,0.8502559661865234,0.07511914062500002
1766000020146510600,2.367510498046875,0.6286518573760986,-0.2734060287475586,-0.7884546518325806,0.09389892578125014
1766000020165290500,2.38629052734375,-1.1467671394348145,-1.6152491569519043,0.1631579399108886,0.11267895507812486
1766000020184070100,2.405070068359375,-1.7573891878128052,-1.6105432510375977,0.4225814342498779,0.13145849609374993
1766000020202850000,2.42385009765625,-1.2981526851654053,-1.1139755249023438,-0.2948317527770996,0.1502385253906251
1766000020221630000,2.4426298828125,-1.4058094024658203,-1.5042972564697266,0.1196458339691162,0.16901831054687522
1766000020240409900,2.461409912109375,-1.9561196565628047,-1.86171293258667,-0.5087342262268066,0.18779833984374994
1766000020259189500,2.480189453125,-2.137983798980713,-2.010012149810791,-2.0266027450561523,0.206577880859375
1766000020277969400,2.498969482421875,-2.1510376930236816,-2.314812660217285,-2.8043932914733887,0.22535791015625017
1766000020296749300,2.517749267578125,-2.6507956981658936,-2.5260329246521,-2.960832118988037,0.24413769531249985
1766000020315529000,2.536529052734375,-2.9822442531585693,-2.554785251617432,-2.6035032272338867,0.26291748046874996
1766000020334308900,2.555308837890625,-3.1294586658477783,-2.6700830459594727,-1.9093483686447144,0.2816972656250001
1766000020353088800,2.5740888671875,-3.2092177867889404,-3.0241050720214844,-1.3497989177703855,0.30047729492187525
1766000020371868700,2.59286865234375,-3.122343063354492,-3.314816474914551,-0.8995754718780518,0.3192570800781249
1766000020390648300,2.6116484375,-3.119313240051269,-3.2394285202026367,-0.3764494657516479,0.33803686523437504
1766000020409428200,2.63042822265625,-2.670060634613037,-3.0857934951782227,0.2419929504394531,0.35681665039062516
1766000020428208000,2.6492080078125,-2.069233655929565,-2.896991729736328,0.8975883722305298,0.3755964355468753
1766000020446987800,2.66798779296875,-1.7484478950500488,-2.6958227157592773,1.266959547996521,0.39437622070312495
1766000020465767700,2.686767578125,-1.96242094039917,-2.436944007873535,1.4695720672607422,0.41315600585937506
1766000020484547600,2.705547607421875,-2.456101417541504,-2.079793930053711,0.5589874982833862,0.43193603515625023
1766000020503327200,2.7243271484375,-2.521733283996582,-1.693572998046875,-0.4567974805831909,0.45071557617187485
1766000020522107100,2.743107177734375,-2.5481951236724854,-1.2100448608398438,-1.1086140871047974,0.46949560546875
1766000020540887000,2.761886962890625,-2.2048964500427246,-0.6609668731689453,-1.1395772695541382,0.48827539062500014
1766000020559667000,2.7806669921875,-1.8994393348693848,-0.0667085647583007,-1.0358997583389282,0.5070554199218749
1766000020578446600,2.799446533203125,-1.6355030536651611,0.2760000228881836,-1.2958449125289917,0.5258349609374999
1766000020597226500,2.8182265625,-1.3926129341125488,0.2638254165649414,-1.4980239868164062,0.5446149902343751
1766000020616006400,2.83700634765625,-1.4930744171142578,0.1940317153930664,-1.3023815155029297,0.5633947753906252
1766000020634786000,2.8557861328125,-1.4162955284118652,0.5842046737670898,-1.0148863792419434,0.5821745605468749
1766000020653566000,2.87456591796875,-0.7737150192260742,1.2537193298339844,-0.8289615511894226,0.600954345703125
1766000020672345900,2.893345947265625,-0.2560529708862304,1.5539608001708984,-0.7423126697540283,0.6197343750000002
1766000020691125800,2.912125732421875,-0.2863669395446777,1.565898895263672,-0.8150895237922668,0.6385141601562498
1766000020709905400,2.930905517578125,-0.3361115455627441,1.334996223449707,-0.1913567036390304,0.6572939453125
1766000020728685300,2.949685302734375,-0.3674674034118652,1.290252685546875,0.5150390863418579,0.6760737304687501
1766000020747465200,2.96846533203125,-0.4721717834472656,1.4022321701049805,0.8506163358688354,0.6948537597656252
1766000020766244900,2.987244873046875,-0.8024101257324219,2.494872093200684,0.7929086685180664,0.7136333007812499
1766000020785024800,3.006024658203125,0.8980050086975098,4.57589054107666,0.547336220741272,0.7324130859375
1766000020803804700,3.0248046875,3.2752604484558105,5.34400749206543,-1.3035855293273926,0.7511931152343752
1766000020822584300,3.043584228515625,5.2353515625,6.410624504089356,-4.553661346435547,0.7699726562500002
1766000020841364200,3.0623642578125,3.193164587020874,6.801880836486816,-3.305815458297729,0.7887526855468749
1766000020860144000,3.08114404296875,1.9191057682037356,3.199934959411621,-2.119896173477173,0.8075324707031251
1766000020878924000,3.099924072265625,0.5646164417266846,0.4625387191772461,-2.4771206378936768,0.8263125000000002
1766000020897703700,3.11870361328125,-0.1941819190979004,-1.233609676361084,-2.1828179359436035,0.8450920410156249
1766000020916483600,3.137483642578125,-0.9311230182647704,-1.1021089553833008,-1.5927459001541138,0.8638720703125
1766000020935263500,3.156263427734375,-1.10457444190979,-0.2924375534057617,-0.7110257744789124,0.8826518554687501
1766000020954043100,3.175043212890625,-0.4739773273468017,-0.2550592422485351,0.052028339356184,0.9014316406250003
1766000020972823000,3.193822998046875,0.526975154876709,-0.458439826965332,0.4041214287281036,0.9202114257812499
1766000020991603000,3.21260302734375,1.2349541187286377,-0.337132453918457,0.9313302636146544,0.9389914550781251
1766000021010382600,3.231382568359375,1.4223151206970217,0.1478900909423828,1.7086480855941772,0.9577709960937502
1766000021029162500,3.25016259765625,1.348797082901001,0.3500051498413086,2.3494951725006104,0.9765510253906249
1766000021057332200,3.278332275390625,0.3113300800323486,0.1219100952148437,2.4855382442474365,1.0047207031250003
1766000021076112100,3.297112060546875,-0.1734673976898193,-0.1105270385742187,1.4957736730575562,1.02350048828125
1766000021094892000,3.31589208984375,-0.7569725513458252,-0.0588502883911132,0.4341934323310852,1.0422805175781251
1766000021113671700,3.334671630859375,-1.177499771118164,0.1976833343505859,-0.5724057555198669,1.0610600585937502
1766000021132451600,3.35345166015625,-1.0650956630706787,0.3169898986816406,-1.1282042264938354,1.079840087890625
1766000021151231500,3.3722314453125,-0.5303945541381836,0.1381998062133789,-0.8010541796684265,1.098619873046875
1766000021170011400,3.391011474609375,0.1718525886535644,-0.0532236099243164,-0.4201519191265106,1.1173999023437502
1766000021188791000,3.409791015625,0.7046270370483398,-0.1207847595214843,-0.1500047147274017,1.1361794433593753
1766000021207571000,3.428571044921875,1.0434731245040894,-0.0153875350952148,0.1245252639055252,1.15495947265625
1766000021226350800,3.447350830078125,1.250704288482666,0.1096878051757812,0.3311387598514557,1.1737392578125
1766000021245130800,3.466130859375,1.3069219589233398,0.1148242950439453,0.4635975062847137,1.1925192871093753
1766000021263910400,3.484910400390625,1.4137449264526367,-0.0384292602539062,0.3289622366428375,1.211298828125
1766000021282690300,3.503690185546875,1.588543176651001,-0.1001558303833007,0.2745678126811981,1.23007861328125
1766000021301470200,3.52247021484375,1.763381838798523,-0.0670700073242187,0.3573562204837799,1.2488586425781252
1766000021320249900,3.541249755859375,1.7591454982757568,-0.036778450012207,0.6921756267547607,1.2676381835937502
1766000021339029800,3.56002978515625,1.676234483718872,-0.0414772033691406,0.6645258665084839,1.286418212890625
1766000021357809700,3.5788095703125,1.617592453956604,0.0274486541748046,0.0045669972896575,1.305197998046875
1766000021376589300,3.59758935546875,1.8911476135253904,0.0482912063598632,-0.5039647817611694,1.3239777832031252
1766000021395369200,3.616369140625,2.24372673034668,-0.1325006484985351,-0.5978251695632935,1.3427575683593749
1766000021414149000,3.635149169921875,2.3792998790740967,-0.2252044677734375,-0.6125493049621582,1.36153759765625
1766000021432929000,3.653928955078125,2.517765998840332,-0.0690174102783203,-0.5104777812957764,1.3803173828125002
1766000021451708700,3.672708740234375,2.906181812286377,0.1884574890136718,-0.7013671398162842,1.3990971679687503
1766000021470488600,3.691488525390625,3.537301540374756,0.4379377365112304,-1.1067910194396973,1.417876953125
1766000021489268500,3.7102685546875,3.8646180629730233,0.7857656478881836,-1.6138052940368652,1.4366569824218751
1766000021508048400,3.72904833984375,3.144819736480713,1.2319746017456057,-2.357543706893921,1.4554367675781252
1766000021526828000,3.747828125,2.1648294925689697,1.856416702270508,-2.84429931640625,1.474216552734375
1766000021545608000,3.76660791015625,1.419985294342041,2.1917762756347656,-2.226805686950684,1.492996337890625
1766000021564387800,3.785387939453125,0.5335404872894287,2.292034149169922,-0.8920939564704895,1.5117763671875002
1766000021583167500,3.80416748046875,-0.1598348617553711,2.6594858169555664,-0.0171350389719009,1.5305559082031253
1766000021601947400,3.822947509765625,-0.7142128944396973,2.5988988876342773,0.5576328635215759,1.5493359375
1766000021620727300,3.841727294921875,-1.0815377235412598,2.178396224975586,0.5729886293411255,1.56811572265625
1766000021639507200,3.860507080078125,-1.632359504699707,1.7327089309692385,0.5185771584510803,1.5868955078125002
1766000021658286800,3.879286865234375,-2.4769325256347656,1.5161476135253906,-0.0216859355568885,1.60567529296875
1766000021677066800,3.898066650390625,-2.6006102561950684,1.156351089477539,-0.9584414958953856,1.624455078125
1766000021695846700,3.9168466796875,-2.33504581451416,1.0099515914916992,-1.518183946609497,1.6432351074218752
1766000021714626300,3.935626220703125,-1.728313684463501,0.7367162704467773,-0.9280557632446288,1.6620146484375002
1766000021733406200,3.95440625,-1.314570426940918,-0.114964485168457,0.4283037781715393,1.680794677734375
1766000021752186000,3.97318603515625,-0.7423086166381836,-0.1590528488159179,2.2076706886291504,1.699574462890625
1766000021770966000,3.991966064453125,-0.2942185401916504,0.3577432632446289,1.6057504415512085,1.7183544921875002
1766000021789745700,4.01074560546875,1.0619986057281494,-0.0975799560546875,-0.4810670614242553,1.7371340332031249
1766000021808525600,4.029525634765625,-7.443431854248047,-5.004726409912109,-1.5852267742156982,1.7559140625000005
1766000021827305500,4.048305419921875,0.693742036819458,-2.1952219009399414,-4.616187572479248,1.7746938476562502
1766000021846085400,4.06708544921875,-1.8730933666229248,2.530258178710937,2.197827816009521,1.7934738769531249
1766000021864865000,4.085864990234375,-1.312220335006714,-1.278364181518555,3.611664295196533,1.8122534179687504
1766000021883645000,4.10464501953125,-1.2546539306640625,-0.7293214797973633,-0.383162260055542,1.8310334472656247
1766000021902424800,4.1234248046875,-0.1642582863569259,-0.4025831222534179,1.272876262664795,1.8498132324218743
1766000021930594600,4.151594482421875,-1.714793682098389,-1.3625574111938477,0.0790867805480957,1.8779829101562497
1766000021949374200,4.170374267578125,-1.8162428140640257,-0.6090612411499023,-1.1222450733184814,1.8967626953124994
1766000021968154000,4.189154052734375,-2.085514545440674,-0.6202793121337891,-1.4454066753387451,1.91554248046875
1766000021986934000,4.20793408203125,-2.225835084915161,-1.300577163696289,-1.4626357555389404,1.9343225097656247
1766000022005714000,4.2267138671875,-2.4295096397399902,-1.760417938232422,-1.3083460330963137,1.9531022949218744
1766000022024493600,4.24549365234375,-2.3055336475372314,-1.704112529754639,-1.9366962909698489,1.971882080078125
1766000022043273500,4.2642734375,-2.4068963527679443,-1.671013355255127,-2.335394859313965,1.9906618652343746
