time,seconds_elapsed,z,y,x,t
1766000046184797000,28.405796875,-2.843942880630493,-1.7620248794555664,-1.2262508869171145,26.132185302734374
1766000046203576600,28.42457666015625,-2.842273473739624,-1.6400556564331057,-1.1919361352920532,26.150965087890626
1766000046222356500,28.4433564453125,-2.503234624862671,-1.4773674011230469,-1.1081451177597046,26.169744873046874
1766000046241136400,28.462136474609373,-2.282496213912964,-1.349996566772461,-1.1411054134368896,26.188524902343747
1766000046259916000,28.480916015625,-2.1042494773864746,-1.0566320419311523,-1.5729825496673584,26.207304443359373
1766000046278696000,28.49969604492188,-1.998286724090576,-0.8177757263183594,-1.485332489013672,26.226084472656254
1766000046297475800,28.518475830078124,-1.825223684310913,-0.6726007461547852,-1.0980628728866575,26.244864257812498
1766000046316255500,28.53725537109375,-1.9000918865203855,-0.4127626419067383,-0.8800141215324402,26.263643798828124
1766000046335035400,28.556035400390623,-1.8393864631652832,-0.099283218383789,-1.0059906244277954,26.282423828124998
1766000046353815300,28.574815185546875,-1.769036054611206,0.1008825302124023,-1.1875041723251345,26.30120361328125
1766000046372595000,28.593594970703126,-1.8742833137512207,0.0500087738037109,-1.010941505432129,26.3199833984375
1766000046391374800,28.61237475585937,-1.9562339782714844,-0.0399494171142578,-0.958091139793396,26.338763183593745
1766000046410154500,28.631154541015626,-1.878896713256836,-0.1505336761474609,-0.9604593515396118,26.35754296875
1766000046428934400,28.649934326171877,-1.82374906539917,-0.2012357711791992,-0.9372670650482178,26.37632275390625
1766000046447714300,28.66871435546875,-1.7542448043823242,-0.1830482482910156,-0.95453542470932,26.395102783203125
1766000046466494000,28.687493896484376,-1.4889130592346191,-0.2207012176513672,-0.5114712119102478,26.41388232421875
1766000046485273900,28.70627392578125,-1.2982711791992188,-0.1815447807312011,0.1125534176826477,26.432662353515624
1766000046504053800,28.7250537109375,-1.1648259162902832,-0.0886392593383789,0.671343207359314,26.451442138671876
1766000046522833400,28.74383349609375,-1.0944137573242188,0.1664495468139648,1.1788617372512815,26.470221923828124
1766000046541613300,28.76261328125,-0.5412139892578125,0.3710155487060547,1.544194221496582,26.489001708984375
1766000046560393200,28.781393310546875,-2.750143527984619,1.5584912300109863,1.6367855072021484,26.50778173828125
1766000046579172900,28.8001728515625,-0.017669677734375,3.6649670600891113,1.8357120752334597,26.526561279296875
1766000046597952800,28.81895288085937,2.168855905532837,3.301112174987793,-0.0020871460437774,26.545341308593745
1766000046616732400,28.837732421875,0.7331099510192871,4.119189262390137,-1.74178147315979,26.564120849609374
1766000046635512300,28.85651220703125,2.6055026054382324,5.607212066650391,-3.203745126724243,26.582900634765625
1766000046654292200,28.875292236328125,3.2503013610839844,3.3404102325439453,-3.3806612491607666,26.6016806640625
1766000046673072000,28.894072021484376,2.650489330291748,0.8451261520385742,-3.617701292037964,26.62046044921875
1766000046691851800,28.912851806640624,1.4976556301116943,0.7360258102416992,-3.145345687866211,26.639240234375
1766000046710631700,28.93163159179688,0.3073482513427734,1.2709760665893557,-1.556671977043152,26.658020019531254
1766000046729411300,28.950411376953124,0.1812372207641601,1.064896583557129,-0.8733751177787781,26.676799804687498
1766000046748191200,28.96919116210937,0.5935835838317871,0.1018495559692382,-0.8575522899627686,26.695579589843746
1766000046766971100,28.98797119140625,2.5270962715148926,-0.799586296081543,-0.4492324888706207,26.714359619140623
1766000046785750800,29.006750732421875,1.8417439460754397,-0.8032903671264648,0.8922628164291382,26.73313916015625
1766000046804530700,29.02553076171875,1.056875705718994,-0.3010721206665039,1.38258159160614,26.751919189453123
1766000046823310300,29.04431030273437,0.2763595581054687,-0.2144250869750976,2.4007933139801025,26.770698730468744
1766000046842090200,29.06309033203125,-0.2689759731292724,-0.3647146224975586,2.835034847259521,26.789478759765625
1766000046860870100,29.0818701171875,-0.9226844310760498,-0.4060297012329101,2.3309519290924072,26.808258544921873
1766000046879649800,29.10064990234375,-1.1311757564544678,-0.336130142211914,1.4532777070999146,26.827038330078125
1766000046898429700,29.1194296875,-1.063084602355957,-0.258096694946289,0.5437974333763123,26.845818115234373
1766000046917209600,29.13820971679688,-0.8881633281707764,-0.2906341552734375,-0.0851857960224151,26.864598144531254
1766000046935989200,29.1569892578125,-0.798947811126709,0.031991958618164,-0.500524640083313,26.883377685546876
1766000046954769200,29.17576904296875,-0.1265192031860351,0.2831335067749023,-0.9424585103988647,26.902157470703123
1766000046973549000,29.194549072265627,0.498291015625,0.0696611404418945,-0.9432612061500548,26.9209375
1766000046992328700,29.21332861328125,0.6775052547454834,0.0049648284912109,-1.1686373949050903,26.939717041015623
1766000047011108600,29.23210864257813,0.7280610799789429,-0.1223773956298828,-0.5850582718849182,26.958497070312504
1766000047029888300,29.25088818359375,1.3680944442749023,-0.3266553878784179,0.6248503923416138,26.977276611328126
1766000047048668200,29.269668212890625,2.0917489528656006,-0.2999916076660156,1.2093141078948977,26.996056640625
1766000047067448000,29.288447998046877,2.7509164810180664,-0.3421382904052734,0.1287217289209365,27.01483642578125
1766000047086227700,29.307227783203125,2.862861394882202,-0.2220735549926757,-0.9567632675170898,27.0336162109375
1766000047105007600,29.326007568359376,2.133671522140503,0.1301698684692382,-1.364735126495361,27.05239599609375
1766000047123787300,29.344787353515624,1.0373939275741575,0.7275161743164062,-0.8956605792045593,27.07117578125
1766000047142567200,29.36356713867188,0.8600772619247437,0.5590839385986328,-0.2405531257390976,27.089955566406253
1766000047161347000,29.38234716796875,0.5688066482543945,0.0433025360107421,0.6804941296577454,27.108735595703124
1766000047180126700,29.40112670898437,0.5907113552093506,-0.2516956329345703,0.8972444534301758,27.127515136718745
1766000047198906600,29.41990673828125,0.4916090965270996,-0.3297796249389648,0.2806016504764557,27.146295166015623
1766000047217686300,29.438686279296878,0.236802339553833,-0.2956628799438476,-0.2313080728054046,27.165074707031252
1766000047236466200,29.45746606445313,0.2567522525787353,-0.1766986846923828,-0.1750795543193817,27.183854492187503
1766000047255246000,29.47624609375,0.6366981267929077,-0.0323505401611328,0.1890069097280502,27.202634521484374
1766000047274025700,29.495025634765625,0.8787068128585815,-0.0064926147460937,0.3483576774597168,27.2214140625
1766000047292805600,29.5138056640625,1.0363281965255735,0.0870532989501953,0.1207693070173263,27.240194091796873
1766000047311585300,29.532585205078124,1.3721115589141846,0.1706829071044922,-0.2831231355667114,27.2589736328125
1766000047330365200,29.551365234375,1.9277883768081665,0.1430568695068359,-0.7992956042289734,27.277753662109376
1766000047349145000,29.57014501953125,2.561100006103516,0.2545175552368164,-1.7468217611312866,27.296533447265624
1766000047367924700,29.5889248046875,3.400142192840576,0.1870021820068359,-2.965202808380127,27.315313232421875
1766000047386704600,29.60770458984375,3.5765380859375,1.1223106384277344,-5.049273014068604,27.334093017578123
1766000047405484500,29.626484619140623,4.216853141784668,2.164949417114258,-7.471925258636475,27.352873046874997
1766000047424264200,29.64526416015625,4.735881805419922,0.9274168014526368,-7.496436595916748,27.371652587890622
1766000047443044000,29.66404418945313,2.665534496307373,0.9047174453735352,-7.000612735748291,27.390432617187503
1766000047461823700,29.68282373046875,0.265054702758789,2.286417007446289,-5.835465431213379,27.409212158203125
1766000047480603600,29.701603759765625,-1.6157560348510742,2.558835029602051,-1.4664767980575562,27.4279921875
1766000047499383300,29.72038330078125,-2.386560440063477,2.023763656616211,3.1230573654174805,27.446771728515625
1766000047518163200,29.7391630859375,-2.04766845703125,0.9104175567626952,4.367945671081543,27.465551513671873
1766000047536943000,29.757943115234376,-1.030994892120361,-0.4792289733886719,5.362370491027832,27.48433154296875
1766000047555722800,29.77672265625,-0.3073763847351074,-0.7482204437255859,6.645465850830078,27.503111083984376
1766000047574502700,29.795502685546875,-0.1933197975158691,0.1177244186401367,6.271332263946533,27.52189111328125
1766000047593282600,29.814282470703127,0.967991590499878,0.8942937850952148,4.660204887390137,27.5406708984375
1766000047612062200,29.83306225585937,1.4049947261810305,1.116633415222168,5.154345512390137,27.559450683593745
1766000047630842000,29.851842041015622,-2.3475379943847656,0.8388166427612305,4.144772052764893,27.578230468749997
1766000047649621800,29.870621826171877,-2.969292163848877,1.001667022705078,2.420322895050049,27.59701025390625
1766000047668401700,29.889401611328125,-7.962762832641602,-1.2606563568115234,1.4456124305725098,27.6157900390625
1766000047687181600,29.908181640625,-7.379396438598633,-0.7922096252441406,-3.566504955291748,27.634570068359373
1766000047705961200,29.926961181640625,-4.888864517211914,1.0484952926635742,1.88551926612854,27.653349609375
1766000047724741000,29.9457412109375,-2.455082654953003,0.6073160171508789,6.512406349182129,27.672129638671873
1766000047743520800,29.964520751953124,-1.511214256286621,1.448704719543457,9.819727897644045,27.690909179687498
1766000047762300700,29.98330078125,-2.064078092575073,-0.0303707122802734,10.267045974731444,27.709689208984376
1766000047781080600,30.00208056640625,-0.1288032531738281,-3.7682504653930655,-0.6578173637390137,27.728468994140623
1766000047799860200,30.020860107421875,2.469447612762451,-4.541861534118652,-11.202337265014648,27.74724853515625
1766000047818640100,30.03964013671875,3.682867765426636,-3.710549831390381,-12.200020790100098,27.766028564453123
1766000047837419800,30.05841967773437,0.8677752017974854,-4.127779006958008,-5.94828462600708,27.784808105468745
1766000047856199700,30.07719970703125,-2.8305583000183105,-3.4353718757629395,-4.892410755157471,27.803588134765626
1766000047874979300,30.095979248046877,-3.732790470123291,-2.8509774208068848,-0.9715642929077148,27.82236767578125
1766000047893759200,30.11475927734375,-4.767219543457031,-2.879528045654297,2.436279296875,27.841147705078125
1766000047912539000,30.133538818359376,-4.990045547485352,-2.417719841003418,2.144233703613281,27.85992724609375
1766000047931318800,30.15231884765625,-5.0574951171875,-2.355958938598633,1.2158300876617432,27.878707275390624
1766000047950098700,30.1710986328125,-4.629924774169922,-2.1494898796081543,0.9702693819999696,27.897487060546876
1766000047968878300,30.18987841796875,-3.9291090965271,-1.6313867568969729,0.6819210052490234,27.916266845703124
1766000047987658200,30.208658203125,-3.425201416015625,-1.3304815292358398,-0.1568442583084106,27.935046630859375
1766000048006438000,30.22743798828125,-2.9119081497192383,-1.3603010177612305,-0.7073358297348022,27.953826416015623
1766000048025217800,30.2462177734375,-2.513757467269897,-1.369715690612793,-0.7134565114974976,27.972606201171875
1766000048043997400,30.26499755859375,-2.273944854736328,-1.2156124114990234,-0.4148560166358948,27.991385986328122
1766000048062777300,30.28377734375,-1.965367555618286,-0.9494733810424804,0.0590013712644577,28.010165771484374
1766000048081557200,30.30255712890625,-2.1342458724975586,-0.7177858352661133,0.5859662294387817,28.028945556640625
1766000048100337000,30.3213369140625,-1.6955351829528809,-0.7667407989501953,1.1286664009094238,28.047725341796873
1766000048119116500,30.340116455078125,-1.4244236946105957,-1.4395451545715332,1.4764504432678225,28.0665048828125
1766000048137896400,30.358896484375,-2.015413761138916,-2.484182357788086,1.4896671772003174,28.085284912109373
1766000048156676400,30.37767626953125,-7.168332099914551,1.0191659927368164,0.3100916147232055,28.104064697265624
