time,seconds_elapsed,z,y,x,t
1766001764836202500,9.793202392578126,0.0560468435287475,0.1766162812709808,0.0072540193796157,7.071159667968751
1766001764854984000,9.81198388671875,0.0539088174700737,0.2529743909835815,-0.2596938908100128,7.089941162109375
1766001764873765000,9.83076513671875,0.0316122509539127,0.289626270532608,-0.4000400602817535,7.108722412109375
1766001764892546300,9.84954638671875,0.0227547138929367,0.432110458612442,-0.3061196208000183,7.127503662109375
1766001764911327700,9.86832763671875,-0.009315688163042,0.5319868922233582,-0.0767398849129676,7.146284912109375
1766001764930109000,9.88710888671875,-0.0227547138929367,0.6787471175193787,0.1758527010679245,7.165066162109375
1766001764948890000,9.90589013671875,-0.0923933014273643,1.166980862617493,0.4640281498432159,7.183847412109375
1766001764967671600,9.924671630859375,-0.2651153206825256,1.878943681716919,0.8439860343933105,7.202628906250001
1766001764986452700,9.94345263671875,-0.4824304580688476,2.80883264541626,2.3274712562561035,7.221409912109375
1766001765005234000,9.96223388671875,-0.2854265570640564,3.5068984031677246,5.6243085861206055,7.240191162109375
1766001765024015000,9.98101513671875,-0.383928507566452,3.763308763504028,2.449186086654663,7.258972412109375
1766001765042796500,9.999796630859375,-0.5988001823425293,0.5211440324783325,1.909792423248291,7.277753906250001
1766001765070968300,10.02796826171875,1.1811070442199707,-0.9785290360450744,0.9061415195465088,7.305925537109375
1766001765089749500,10.04674951171875,0.430048793554306,-1.3823106288909912,0.7567850947380066,7.324706787109375
1766001765108530700,10.06553076171875,-0.9104939699172974,1.2182934284210205,-0.6233111619949341,7.343488037109375
1766001765127312000,10.084311767578123,-0.3190241456031799,0.7393754720687866,-0.8447496294975281,7.362269042968749
1766001765146093300,10.10309326171875,0.155465081334114,-0.7372374534606934,-1.160719394683838,7.381050537109375
1766001765164874500,10.12187451171875,0.3518581092357635,-2.615952014923096,-1.3839905261993408,7.399831787109375
1766001765183655700,10.14065576171875,0.2612974047660827,-3.222998857498169,-1.358334183692932,7.418613037109375
1766001765211827500,10.168827392578123,-0.057421289384365,-1.9972987174987795,-1.1561379432678225,7.446784667968749
1766001765230609000,10.18760888671875,-0.0659733936190605,-0.6323214173316956,-0.9521090984344482,7.4655661621093765
1766001765249390000,10.20639013671875,-0.0325285494327545,0.4857138693332672,-0.69096440076828,7.4843474121093765
1766001765268171300,10.225171142578125,0.0047342018224298,0.7115811109542847,-0.4818959534168243,7.5031284179687505
1766001765286952400,10.243952392578125,0.0580321550369262,0.4800633490085602,-0.4635699987411499,7.5219096679687505
1766001765305734000,10.26273388671875,0.0800232887268066,0.7390699982643127,-0.5736783742904663,7.540691162109376
1766001765324515000,10.28151513671875,0.093920461833477,1.008461356163025,-0.8131373524665833,7.559472412109376
1766001765343296300,10.300296142578125,-0.0931568816304206,1.204243540763855,-1.135979413986206,7.57825341796875
1766001765362077400,10.319077392578125,-0.4616610705852508,0.4641808867454529,-1.4298053979873655,7.59703466796875
1766001765390249500,10.34724951171875,0.0117591470479965,-1.6174936294555664,-0.792062520980835,7.625206787109376
1766001765409030700,10.36603076171875,0.1211039423942565,-1.4400373697280884,-0.1611919403076172,7.643988037109376
1766001765427811800,10.384811767578125,0.211359217762947,0.5544361472129822,0.0848338454961776,7.66276904296875
1766001765446593000,10.403593017578125,0.0901025533676147,1.6338342428207395,0.1987601220607757,7.68155029296875
1766001765465374500,10.42237451171875,-0.1777616441249847,1.150182008743286,0.1228601783514022,7.700331787109376
1766001765484155600,10.44115576171875,-0.0697913020849227,0.0387135557830333,0.0141262477263808,7.719113037109376
1766001765502936800,10.459936767578125,0.0951421856880188,-0.5539780259132385,-0.0596356727182865,7.73789404296875
1766001765521718000,10.478718017578124,0.0543669648468494,-0.2378554791212082,-0.1136972084641456,7.75667529296875
1766001765549889800,10.506889892578124,-0.0890335440635681,0.4704422354698181,-0.1599702090024948,7.78484716796875
1766001765568671200,10.525671142578124,-0.0745255053043365,0.3746891915798187,-0.1440877318382263,7.80362841796875
1766001765587452400,10.544452392578124,-0.0251981727778911,0.1060613989830017,-0.1164461001753807,7.82240966796875
1766001765606233600,10.563233642578124,0.0064140800386667,0.0205403286963701,-0.083764836192131,7.84119091796875
1766001765625014800,10.582014892578124,-0.0019853105768561,0.1546251475811004,-0.0700203776359558,7.85997216796875
1766001765643796000,10.6007958984375,0.0192422401160001,0.2680932879447937,-0.0518471486866474,7.878753173828126
1766001765662577200,10.6195771484375,0.0216856990009546,0.284433901309967,-0.0516944304108619,7.897534423828126
1766001765681358600,10.638358642578124,0.0251981727778911,0.1422551423311233,-0.0147371124476194,7.91631591796875
1766001765709530400,10.6665302734375,0.058490302413702,-0.0058795735239982,0.0904843434691429,7.944487548828126
1766001765728311600,10.6853115234375,0.0531452372670173,-0.0965929925441742,0.1961639523506164,7.963268798828126
1766001765747092700,10.7040927734375,0.0971274971961975,-0.0975092872977256,0.3453676700592041,7.982050048828126
1766001765765874000,10.7228740234375,0.0946840420365333,-0.0289397183805704,0.5275580883026123,8.000831298828125
1766001765784655400,10.7416552734375,0.0954476222395896,0.1911243200302124,0.7593812942504883,8.019612548828125
1766001765803436500,10.7604365234375,0.129197895526886,0.5055669546127319,1.0571779012680054,8.038393798828125
1766001765822217700,10.7792177734375,0.1238528341054916,0.8274927139282227,1.3881138563156128,8.057175048828125
1766001765850389500,10.807389404296876,0.1134681329131126,1.1016182899475098,1.81235945224762,8.0853466796875
1766001765869171000,10.8261708984375,0.1553123742341995,1.1068105697631836,1.9974514245986936,8.104128173828126
1766001765887952100,10.8449521484375,0.1765399277210235,0.9232457280158995,2.12985634803772,8.122909423828126
1766001765906733300,10.8637333984375,0.1994473487138748,0.6562978625297546,2.242408275604248,8.141690673828126
1766001765925514500,10.882514404296876,0.2241873741149902,0.1491273641586303,2.297691583633423,8.1604716796875
1766001765944295700,10.901295654296876,0.1814268380403518,-0.0350483655929565,2.2152247428894043,8.1792529296875
1766001765963077000,10.9200771484375,-0.0174096468836069,0.0035888305865228,2.133979797363281,8.198034423828126
1766001765981858300,10.9388583984375,0.0328339822590351,0.1581376194953918,1.8929935693740845,8.216815673828126
1766001766000639500,10.957639404296875,0.2976438701152801,0.0553596206009388,1.6443716287612915,8.2355966796875
1766001766028811300,10.985811279296875,0.394160509109497,0.0825431048870086,1.0232748985290527,8.263768554687502
1766001766047592400,11.004592529296875,0.2225074917078018,0.000992655288428,0.4030944108963012,8.282549804687502
1766001766066374000,11.023373779296875,0.2507599890232086,-0.1161406636238098,-0.2445749789476394,8.301331054687502
1766001766085155000,11.042155029296875,0.286953717470169,-0.212504580616951,-1.104214429855347,8.320112304687502
1766001766103936300,11.060936279296875,-0.4770853817462921,-0.212504580616951,-2.16131591796875,8.338893554687502
1766001766122717400,11.079717529296875,-0.3090975880622864,-0.5758163928985596,-2.8282275199890137,8.357674804687502
1766001766141498600,11.09849853515625,-0.1904370933771133,-1.1668280363082886,-3.631056547164917,8.376455810546876
1766001766169670700,11.126670654296875,-0.4912880063056946,-2.3971097469329834,-4.793990612030029,8.4046279296875
1766001766188451800,11.145451904296875,-1.0980294942855835,-3.640372276306152,-4.552393436431885,8.4234091796875
1766001766207233000,11.16423291015625,-0.6710349321365356,-2.298149585723877,-3.1043384075164795,8.442190185546874
1766001766226014500,11.183014404296877,0.1528689116239547,0.0469602309167385,-1.0594686269760132,8.460971679687503
1766001766244795600,11.201795654296877,0.1075121983885765,-0.3669006526470184,-0.3290270566940307,8.479752929687503
1766001766263576800,11.220576904296877,0.1224783882498741,-0.6811906099319458,0.0839175507426261,8.498534179687503
1766001766282358000,11.23935791015625,0.1782197952270507,-0.7117338180541992,0.0979674383997917,8.517315185546877
1766001766301139200,11.25813916015625,0.10934479534626,-0.0651334598660469,-0.0391717031598091,8.536096435546877
1766001766319920600,11.276920654296877,0.013439024798572,0.2870301008224487,-0.1648571342229843,8.554877929687503
1766001766338701800,11.295701904296877,0.0288633611053228,0.2120464295148849,-0.2344957143068313,8.573659179687503
1766001766357483000,11.31448291015625,-0.0119118634611368,0.2934441566467285,-0.2538906633853912,8.592440185546877
1766001766376264200,11.33326416015625,-0.0891862586140632,0.687451958656311,-0.1607337892055511,8.611221435546877
1766001766395045400,11.35204541015625,-0.1395826041698455,0.8702532649040222,0.040698867291212,8.630002685546877
1766001766413826600,11.37082666015625,-0.1400407552719116,0.8174134492874146,0.2535852491855621,8.648783935546877
1766001766432608000,11.38960791015625,-0.1559232324361801,0.9443206191062928,0.4983893036842346,8.667565185546877
1766001766451389200,11.40838916015625,-0.2671006321907043,1.2850303649902344,0.8354339599609375,8.686346435546877
1766001766470170400,11.42717041015625,-0.4077522456645965,1.8415281772613523,2.074878692626953,8.705127685546877
1766001766488951800,11.445951904296876,-0.4471530318260193,2.661461591720581,6.084900379180908,8.723909179687503
1766001766507733000,11.46473291015625,-0.4274526387453079,3.086470603942871,2.557767152786255,8.742690185546877
1766001766526514200,11.48351416015625,-0.785877525806427,2.317850112915039,2.0534982681274414,8.761471435546877
1766001766545295400,11.50229541015625,0.6268999576568604,-1.585423231124878,1.4760783910751345,8.780252685546877
1766001766564076500,11.52107666015625,0.92072594165802,-0.9070578217506408,1.0852776765823364,8.799033935546877
1766001766582857700,11.539857666015624,-1.1919498443603516,-1.3818525075912476,1.234939455986023,8.817814941406251
1766001766601639000,11.558638916015624,0.1498145908117294,0.4844921231269836,-1.172325849533081,8.836596191406251
1766001766620420400,11.57742041015625,0.4978547990322113,-0.7453314065933228,-0.9215658903121948,8.855377685546877
1766001766639201500,11.596201416015624,0.0633772239089012,-0.6188823580741882,-1.1656063795089722,8.874158691406251
1766001766667373300,11.624373291015624,0.2744309902191162,-2.239506721496582,-1.467373609542847,8.902330566406249
1766001766686154500,11.643154541015624,0.0841466262936592,-2.1958298683166504,-1.4992913007736206,8.921111816406249
1766001766704935700,11.661935791015624,-0.2238819450139999,-1.245935082435608,-1.353600025177002,8.939893066406249
1766001766723717000,11.680717041015624,-0.1663079410791397,-0.2934441566467285,-1.1674389839172363,8.958674316406249
1766001766742498300,11.699498291015624,-0.1195767819881439,0.5776489973068237,-0.9560797214508056,8.977455566406249
1766001766761279500,11.718279541015624,-0.1237001195549964,0.7001274228096008,-0.8003092408180237,8.996236816406249
1766001766780060700,11.737060791015624,-0.1000291109085083,0.4965566992759704,-0.7909935116767883,9.015018066406249
1766001766798841900,11.755841796875,-0.0145080387592315,0.5506182312965393,-0.886441171169281,9.033799072265627
1766001766827014000,11.784013916015626,-0.1168278902769088,0.8812488317489624,-1.274034857749939,9.06197119140625
1766001766845795000,11.802795166015626,-0.064598947763443,0.0197767466306686,-1.4059816598892212,9.08075244140625
1766001766864576300,11.821576171875,-0.0448985621333122,-1.131856083869934,-1.0370193719863892,9.099533447265625
1766001766883357400,11.840357421875,0.0297796577215194,-1.3039672374725342,-0.3977493345737457,9.118314697265625
1766001766911529200,11.868529296875,0.096669353544712,1.0495420694351196,0.0239000841975212,9.146486572265626
