time,seconds_elapsed,z,y,x,t
1766001761784246500,6.74124658203125,0.3269653618335724,-1.0467931032180786,-0.6549233794212341,4.019203857421875
1766001761803027700,6.76002783203125,0.2031125426292419,-0.9563851952552797,-0.109573870897293,4.037985107421875
1766001761821809200,6.77880908203125,0.2391535639762878,-0.9585232138633728,0.2494619041681289,4.056766357421875
1766001761840590300,6.79759033203125,0.2309068888425827,-0.4936550855636596,0.3044397234916687,4.075547607421875
1766001761868762400,6.825762451171875,0.0661261156201362,0.1879172772169113,-0.028176138177514,4.1037197265625
1766001761887543600,6.84454345703125,0.0542142502963542,0.2015090137720108,-0.2357174456119537,4.122500732421875
1766001761906325000,6.863324951171875,0.0090102553367614,0.196774810552597,-0.2464075833559036,4.1412822265625
1766001761925106200,6.882106201171875,-0.0206166859716177,0.2916115820407867,-0.1158352345228195,4.1600634765625
1766001761943887400,6.900887451171875,-0.0511599257588386,0.4594466686248779,0.1081994250416755,4.1788447265625
1766001761962668800,6.919668701171875,-0.1198822110891342,0.7358629703521729,0.4292088747024536,4.1976259765625
1766001761981450000,6.938449951171875,-0.2301433086395263,1.1355212926864624,0.778776228427887,4.2164072265625
1766001762000231400,6.9572314453125,-0.3346011936664581,1.544037103652954,1.2744929790496826,4.235188720703125
1766001762019012600,6.9760126953125,-0.4224129915237427,2.3519058227539062,3.4681084156036377,4.253969970703125
1766001762037794000,6.9947939453125,0.2729038298130035,4.011014461517334,4.64081621170044,4.272751220703125
1766001762056575200,7.0135751953125,-0.05604684352874756,3.2469754219055176,1.9589669704437256,4.291532470703125
1766001762075356400,7.0323564453125,-0.3849975168704986,-0.1859319657087326,1.6770528554916382,4.310313720703125
1766001762094137900,7.051137939453125,0.9799798130989076,-1.08100163936615,1.2094359397888184,4.32909521484375
1766001762112919000,7.0699189453125,0.8999565243721008,-2.289597511291504,1.6480368375778198,4.3478762207031245
1766001762131700500,7.088700439453125,-0.74540776014328,1.1275800466537476,-0.575663685798645,4.3666577148437495
1766001762150481700,7.107481689453125,-0.2405280023813247,0.9765437245368958,-0.4073704481124878,4.3854389648437495
1766001762169262800,7.126262939453125,-0.0795651376247406,0.0411570146679878,-0.8867465853691101,4.4042202148437495
1766001762188044300,7.145044189453125,0.2441931962966919,-1.0382410287857056,-1.200425624847412,4.4230014648437495
1766001762206825500,7.163825439453125,0.3144426345825195,-2.1709370613098145,-1.3468804359436035,4.441782714843749
1766001762225607000,7.18260693359375,-0.0783434063196182,-1.8251875638961792,-1.2674680948257446,4.4605642089843744
1766001762244388000,7.20138818359375,-0.1383608728647232,-0.9585232138633728,-1.0780999660491943,4.479345458984374
1766001762263169300,7.220169189453125,0.009621120058,0.041767880320549,-0.8523854613304138,4.498126464843749
1766001762281950700,7.23895068359375,-0.0448985621333122,0.4266127049922943,-0.6162862181663513,4.516907958984374
1766001762300732000,7.25773193359375,-0.1160643100738525,0.4284452795982361,-0.4330267608165741,4.535689208984374
1766001762319513300,7.276513427734375,-0.0172569304704666,0.3282634615898132,-0.3406334817409515,4.554470703124999
1766001762338294500,7.29529443359375,0.0439822636544704,0.2357174456119537,-0.3780489265918731,4.573251708984375
1766001762357075700,7.31407568359375,0.0664315447211265,0.3661370873451233,-0.4933496713638305,4.592032958984375
1766001762375857200,7.332857177734375,0.0340557098388671,0.3157407343387604,-0.6456077098846436,4.610814453125
1766001762394638300,7.351638427734375,-0.0563522763550281,0.0078648841008543,-0.8056542873382568,4.629595703125
1766001762413419800,7.370419677734375,-0.1359174102544784,-0.3763690590858459,-0.8954514265060425,4.648376953125
1766001762432201000,7.389200927734375,-0.0681114196777343,-0.5851321220397949,-0.8751401305198669,4.667158203125
1766001762450982100,7.407982177734375,-0.0187840927392244,-0.5092321634292603,-0.7077631950378418,4.685939453125
1766001762469763600,7.426763671875,-0.0575740039348602,-0.1185841262340545,-0.4612792730331421,4.704720947265625
1766001762488544800,7.445544677734375,-0.0555886961519718,0.3624718785285949,-0.2247218787670135,4.723501953125
1766001762507326000,7.464325927734375,-0.0453567095100879,0.437760978937149,-0.0555123351514339,4.742283203125
1766001762526107400,7.483107421875,-0.0163406319916248,0.1604283601045608,-0.0110719241201877,4.761064697265625
1766001762544888600,7.501888671875,-0.0279470644891262,-0.0306195970624685,-0.0352010838687419,4.779845947265625
1766001762563669800,7.520669677734375,-0.0293215103447437,-0.12713623046875,-0.0770453214645385,4.798626953125
1766001762582451200,7.539451171875,-0.0079412423074245,-0.1272889524698257,-0.104076087474823,4.817408447265625
1766001762601232400,7.558232421875,-0.013439024798572,-0.0990364551544189,-0.1132390573620796,4.836189697265625
1766001762620013800,7.577013916015625,-0.015882484614849,-0.0578030794858932,-0.1143080741167068,4.85497119140625
1766001762638795000,7.595794921875,-0.0035124723799526,-0.0283288545906543,-0.1007163301110267,4.873752197265625
1766001762657576200,7.614576171875,0.006719512399286,-0.0787251964211463,-0.0704785212874412,4.892533447265625
1766001762676357600,7.633357666015625,0.0088575389236211,-0.0547487549483776,-0.0297033004462718,4.91131494140625
1766001762695138800,7.652138916015625,-0.002901607658714,-0.07796161621809,0.0127518018707633,4.93009619140625
1766001762713920000,7.670919921875,-0.0077885258942842,-0.1031597927212715,0.0672714859247207,4.948877197265625
1766001762732701400,7.689701416015625,-0.0181732270866632,-0.0851392820477485,0.1443931609392166,4.96765869140625
1766001762751482600,7.708482666015625,0.0015271619195118,-0.2163224965333938,0.2468657344579696,4.98643994140625
1766001762770263800,7.727263916015625,0.0216856990009546,-0.2103665620088577,0.3804923892021179,5.00522119140625
1766001762789045200,7.746045166015625,0.0180205106735229,-0.0616209842264652,0.557337760925293,5.02400244140625
1766001762807826400,7.764826416015625,0.0021380267571657,0.0180968698114156,0.774042010307312,5.04278369140625
1766001762826607600,7.783607666015625,-0.0106901340186595,0.0717002525925636,1.035492181777954,5.06156494140625
1766001762845389000,7.80238916015625,-0.0368046015501022,0.187611848115921,1.2680789232254028,5.080346435546875
1766001762864170200,7.821170166015625,-0.0221438482403755,0.6184242367744446,1.4524073600769043,5.0991274414062495
1766001762882951700,7.83995166015625,0.0120645789429545,0.7766382098197937,1.6245185136795044,5.1179089355468745
1766001762901732900,7.85873291015625,0.0569631420075893,0.7112756967544556,1.744706153869629,5.1366901855468745
1766001762920514000,7.87751416015625,0.1663079410791397,0.4826595485210418,1.830685377120972,5.1554714355468745
1766001762939295500,7.89629541015625,0.2069304436445236,0.3936260044574737,1.9255220890045168,5.1742526855468745
1766001762958076700,7.91507666015625,0.1151480078697204,0.3638463318347931,1.960036039352417,5.193033935546874
1766001762976857900,7.93385791015625,0.0106901340186595,0.4428006112575531,1.976834774017334,5.211815185546874
1766001762995639300,7.952639404296875,-0.0244345907121896,0.4750237166881561,1.953469157218933,5.230596679687499
1766001763014420500,7.97142041015625,-0.002901607658714,0.4035525321960449,1.7683771848678589,5.249377685546874
1766001763033201700,7.99020166015625,-0.0277943480759859,0.3597230017185211,1.6982804536819458,5.268158935546875
1766001763051983000,8.008983154296875,0.13423752784729,0.386448323726654,1.3239730596542358,5.286940429687499
1766001763070764300,8.027764404296875,0.435699313879013,0.227318063378334,1.051680088043213,5.305721679687499
1766001763089545500,8.04654541015625,0.5586358308792114,-0.0843756943941116,0.4498255550861358,5.324502685546875
1766001763108327000,8.065326904296874,0.4242455959320068,-0.3615556061267853,-0.1216384470462799,5.343284179687499
1766001763127108000,8.084108154296874,0.2935205399990082,-0.6938660144805908,-0.8908699154853821,5.362065429687499
1766001763145889300,8.10288916015625,-0.471587598323822,-0.3986656367778778,-1.8615339994430544,5.380846435546875
1766001763164670700,8.121670654296874,-0.4369210302829742,-0.455781489610672,-2.535776138305664,5.399627929687499
1766001763183452000,8.140451904296874,-0.4066832363605499,-0.8016836643218994,-3.3187520503997803,5.418409179687499
1766001763202233000,8.159233154296874,-0.5253437161445618,-1.0145699977874756,-4.282238483428955,5.4371904296875
1766001763221014300,8.17801416015625,-0.7547234296798706,-1.8022801876068115,-4.984427452087402,5.455971435546876
1766001763239795700,8.196795654296874,-0.34574946761131287,-3.460625410079956,-4.405938625335693,5.4747529296875
1766001763258577000,8.215576904296874,-0.1661552190780639,-1.3154209852218628,-2.625114917755127,5.4935341796875
1766001763286749000,8.2437490234375,0.0965166315436363,0.3134499788284302,-0.3433823585510254,5.521706298828126
1766001763305530000,8.262530029296874,0.1922696828842163,-0.2879463732242584,0.1309541314840316,5.5404873046875
1766001763324311600,8.2813115234375,0.1852447390556335,-0.71463543176651,0.2627482116222381,5.559268798828126
1766001763343092700,8.3000927734375,0.2124282270669937,-0.5249619483947754,0.171882078051567,5.578050048828126
1766001763361874000,8.3188740234375,0.0705548822879791,-0.2109774202108383,-0.0691040754318237,5.596831298828126
1766001763380655000,8.337655029296876,0.0157297682017087,-0.1417969912290573,-0.2673296928405761,5.6156123046875015
1766001763399436500,8.3564365234375,-0.0108428495004773,-0.18990258872509,-0.3647626340389251,5.634393798828126
1766001763418217700,8.3752177734375,-0.0004581485991366,-0.1537088453769683,-0.2795470058917999,5.653175048828126
1766001763436999200,8.393999267578126,-0.0316122509539127,-0.0074067353270947,-0.0794887766242027,5.6719565429687515
1766001763465171000,8.4221708984375,-0.0433713980019092,0.3901135325431824,0.2293033599853515,5.7001281738281255
1766001763483952400,8.440952392578126,-0.086284652352333,0.7283799052238464,0.4392881393432617,5.718909667968751
1766001763502733600,8.459733642578126,-0.1568395346403122,1.0861939191818235,0.7835104465484619,5.737690917968751
1766001763521514800,8.4785146484375,-0.3474293351173401,1.7831906080245972,1.785023212432861,5.7564719238281254
1766001763540296000,8.4972958984375,-0.4961749315261841,3.226053237915039,5.53787088394165,5.775253173828125
1766001763559077400,8.516077392578126,-0.32940882444381714,4.313086986541748,3.048291683197021,5.794034667968751
1766001763577858600,8.534858642578126,-0.3113883137702942,1.778761863708496,2.0446407794952397,5.812815917968751
1766001763596639700,8.5536396484375,0.3601047992706299,-1.547549605369568,1.3499348163604736,5.831596923828125
1766001763624811800,8.581811767578126,0.7786998748779297,-1.157817840576172,0.6246855854988098,5.859769042968751
1766001763643593000,8.600593017578126,0.3125336915254593,0.3048978745937347,-0.1366046369075775,5.878550292968751
1766001763662374100,8.6193740234375,-0.3181078433990478,1.722867727279663,-0.8952987194061279,5.897331298828125
1766001763681155600,8.638155517578125,0.2649625837802887,0.0985783040523529,-1.0405317544937134,5.916112792968751
1766001763709327400,8.666327392578125,0.1974620372056961,-2.2491278648376465,-1.2934298515319824,5.944284667968751
1766001763728108500,8.685108642578125,0.3385718166828155,-2.878013134002685,-1.288542866706848,5.963065917968751
1766001763746890000,8.703889892578125,0.0872009471058845,-2.088317632675171,-1.1683552265167236,5.981847167968751
1766001763765671200,8.722671142578125,-0.107054054737091,-0.96890789270401,-0.981277883052826,6.000628417968751
1766001763784452400,8.741452392578125,-0.0600174628198146,0.0529161617159843,-0.76991868019104,6.019409667968751
1766001763803233800,8.76023388671875,-0.0155770517885684,0.4609738290309906,-0.5522981286048889,6.038191162109375
