time,seconds_elapsed,z,y,x,t
1766001770010430500,14.967430419921875,0.1400407552719116,0.3884336352348327,0.8361974954605103,12.245387695312502
1766001770029211600,14.986211669921875,0.1562286615371704,0.4353175163269043,0.998534858226776,12.264168945312502
1766001770047992800,15.004992919921875,0.1776089370250702,0.4683042168617248,1.1665226221084597,12.282950195312502
1766001770066774000,15.02377392578125,0.1912006735801696,0.4554760456085205,1.359555959701538,12.301731201171876
1766001770085555200,15.04255517578125,0.1542433500289917,0.3728565871715545,1.5287654399871826,12.320512451171876
1766001770104336400,15.06133642578125,0.1560759544372558,0.2199876755475998,1.705763578414917,12.339293701171876
1766001770123117800,15.080117919921875,0.1108719557523727,0.1340084671974182,1.8170936107635496,12.358075195312502
1766001770141899000,15.09889892578125,0.0868955180048942,0.1986074149608612,1.7889938354492188,12.376856201171876
1766001770160680200,15.11768017578125,-0.0116064306348562,0.1282052397727966,1.7723478078842163,12.395637451171876
1766001770179461000,15.136461181640623,0.0789542719721794,0.0747545808553695,1.685299515724182,12.41441845703125
1766001770198242300,15.1552421875,0.338266372680664,-0.0107664912939071,1.6136757135391235,12.433199462890627
1766001770217023500,15.1740234375,0.2719875574111938,-0.0840702652931213,1.4947097301483154,12.451980712890627
1766001770235804700,15.1928046875,0.2719875574111938,-0.070631243288517,1.2259292602539062,12.470761962890627
1766001770254585900,15.2115859375,0.2719875574111938,-0.1346193253993988,0.8607848286628723,12.489543212890627
1766001770273367000,15.230366943359376,0.1133154183626174,-0.0746018588542938,0.2265544682741165,12.508324218750001
1766001770292148200,15.249148193359376,0.249690979719162,-0.152487114071846,-0.3849211633205414,12.527105468750001
1766001770310929400,15.267929443359376,0.263435423374176,-0.3000109791755676,-1.1521673202514648,12.545886718750001
1766001770329710800,15.2867109375,0.09514218941330914,0.0778089016675949,-2.2546255588531494,12.564668212890627
1766001770348492000,15.305491943359376,-0.0594066008925437,-1.1390337944030762,-2.94001579284668,12.583449218750001
1766001770367273200,15.324273193359376,-0.1653916388750076,-1.6106213331222534,-3.7596435546875,12.602230468750001
1766001770386054400,15.343054443359376,-0.3721693754196167,-1.672318696975708,-3.7596435546875,12.621011718750001
1766001770404835600,15.361835693359374,-0.1653916388750076,-1.9699625968933103,-3.7596435546875,12.639792968750001
1766001770423616800,15.38061669921875,-0.05337432026863101,-1.577481985092163,-4.564457893371582,12.658573974609375
1766001770442398000,15.39939794921875,0.2654207348823547,0.2971093654632568,-1.966144680976868,12.677355224609375
1766001770461179100,15.41817919921875,0.2241873741149902,-0.3391063213348388,-0.6888263821601868,12.696136474609375
1766001770479960600,15.436960693359374,0.1980729103088379,-0.3522399067878723,0.194484069943428,12.714917968750001
1766001770498741800,15.45574169921875,0.2241873741149902,-0.3982074856758117,0.6225475668907166,12.733698974609375
1766001770517523000,15.47452294921875,0.185092031955719,0.2592357397079468,0.5897135734558105,12.752480224609375
1766001770536304000,15.49330419921875,-0.0516180731356143,0.7360156774520874,0.2219729870557785,12.771261474609375
1766001770555085300,15.512085205078124,-0.0853683501482009,0.6083449721336365,-0.1065195426344871,12.790042480468749
1766001770573866500,15.530866455078124,-0.0829248949885368,0.3068831861019134,-0.2737437784671783,12.808823730468749
1766001770592647700,15.549647705078126,-0.122020237147808,0.107283130288124,-0.3091739416122436,12.827604980468752
1766001770611428900,15.568428955078126,-0.1204930767416954,-0.0776561871170997,-0.2468657344579696,12.846386230468752
1766001770630210300,15.587210205078126,-0.1284343153238296,0.1498909443616867,-0.0970511436462402,12.865167480468752
1766001770648991500,15.605991455078126,-0.2174678593873977,0.756632387638092,0.152487114071846,12.883948730468752
1766001770667772700,15.624772705078126,-0.3184132575988769,1.274340271949768,0.4625009894371032,12.902729980468752
1766001770686553900,15.643553955078126,-0.4016436040401459,1.452865481376648,0.7987820506095886,12.921511230468752
1766001770705335000,15.6623349609375,-0.3600284308195114,1.67338764667511,1.648647665977478,12.940292236328126
1766001770724116200,15.6811162109375,-0.40431612730026245,1.67338764667511,1.7531819343566895,12.959073486328126
1766001770742897400,15.6998974609375,-0.12637265026569364,1.67338764667511,2.7599635124206543,12.977854736328126
1766001770761678800,15.718678955078126,-0.406988650560379,1.8702389001846316,1.8577162027359009,12.996636230468752
1766001770780460000,15.7374599609375,0.1542433500289917,-1.8907028436660769,1.1526254415512085,13.015417236328126
1766001770799241200,15.7562412109375,0.0187840927392244,-1.1940115690231323,1.1158208847045898,13.034198486328126
1766001770818022400,15.7750224609375,0.0311541035771369,-0.0002290742995683,0.350101888179779,13.052979736328126
1766001770836803600,15.793803466796875,0.0187840927392244,1.156596064567566,-1.4349976778030396,13.0717607421875
1766001770855584800,15.812584716796875,0.0311541035771369,-1.389641046524048,-1.444618821144104,13.0905419921875
1766001770874366000,15.831365966796875,0.0167987812310457,-0.8552870750427246,-1.7332524061203003,13.1093232421875
1766001770902537700,15.859537841796875,0.0239764424040913,-2.3523638248443604,-2.187124967575073,13.137495117187502
1766001770921319000,15.87831884765625,0.1519526094198227,-1.3818525075912476,-2.35709810256958,13.156276123046876
1766001770940100000,15.89710009765625,-0.3573558926582336,-0.5208385586738586,-2.205756425857544,13.175057373046876
1766001770958881300,15.91588134765625,-0.0812450125813484,0.218002364039421,-1.9113194942474363,13.193838623046876
1766001770977662700,15.934662841796875,0.058490302413702,0.4098139107227325,-1.6043599843978882,13.212620117187502
1766001770996444000,15.95344384765625,0.0407752245664596,0.3273471593856811,-1.349782109260559,13.231401123046876
1766001771015225000,15.97222509765625,0.0180205106735229,0.5759690999984741,-1.209588646888733,13.250182373046876
1766001771034006300,15.99100634765625,0.0201585385948419,0.5891027450561523,-1.0086140632629397,13.268963623046876
1766001771052787500,16.009787353515627,-0.0268780495971441,-0.0391717031598091,-0.7995456457138062,13.287744628906253
1766001771071568600,16.028568603515627,0.1163697391748428,-0.167300596833229,-0.6129264235496521,13.306525878906253
1766001771090349800,16.047349853515627,0.1397353112697601,0.3887390792369842,-0.4402044415473938,13.325307128906253
1766001771109131000,16.066131103515627,0.0048869182355701,0.8209258913993835,-0.3313177824020386,13.344088378906253
1766001771127912200,16.084912109375,-0.019700389355421,0.8021417856216431,-0.3132972717285156,13.362869384765627
1766001771146693600,16.103693603515627,0.0423023849725723,0.6097193956375122,-0.3413970470428467,13.381650878906253
1766001771165474800,16.122474853515627,0.0077885258942842,0.5049561262130737,-0.3927097022533417,13.400432128906253
1766001771184256000,16.141256103515627,0.0177150778472423,0.5338194370269775,-0.3986656367778778,13.419213378906253
1766001771203037200,16.160037109375,0.0177150778472423,0.5735256671905518,-0.3762163519859314,13.437994384765624
1766001771221818400,16.178818359375,0.0022907429374754,0.5793288946151733,-0.3417024910449981,13.456775634765624
1766001771240599600,16.197599609375,-0.024129157885909,0.5912407636642456,-0.3045924603939056,13.475556884765624
1766001771259380700,16.216380615234375,-0.0372627526521682,0.4780780375003814,-0.2377027571201324,13.494337890624998
1766001771278162000,16.235161865234375,-0.0439822636544704,0.2671769857406616,-0.1729510873556137,13.513119140624998
1766001771296943000,16.253943115234375,0.0183259434998035,0.0078648841008543,-0.0701730921864509,13.531900390624997
1766001771325115100,16.282115234375,0.0361937396228313,-0.1923460513353347,0.0185550171881914,13.560072509765622
1766001771343896300,16.300896240234376,0.0335975624620914,-0.0513890013098716,0.0561232008039951,13.578853515625
1766001771362677500,16.319677490234376,0.0171042140573263,-0.0275652725249528,0.0970511436462402,13.597634765625
1766001771381458700,16.338458740234376,0.0,-0.245338574051857,0.1367573589086532,13.616416015625
1766001771400239900,16.357239990234376,0.0183259434998035,-0.2821431756019592,0.1343138962984085,13.635197265625
1766001771419021000,16.37602099609375,-0.0296269413083791,-0.119500420987606,0.1123227626085281,13.653978271484373
1766001771437802200,16.39480224609375,-0.0491746142506599,0.171423926949501,0.1274416595697403,13.672759521484373
1766001771456583400,16.41358349609375,-0.0349720083177089,-0.0645225942134857,0.1407279670238495,13.691540771484373
1766001771475364900,16.43236474609375,0.0097738364711403,-0.2213621288537979,0.1515708267688751,13.710322021484373
1766001771494146000,16.45114599609375,0.0027488914784044,-0.0498618371784687,0.1599702090024948,13.729103271484373
1766001771512927200,16.46992724609375,-0.009621120058,0.0845284163951873,0.1492800861597061,13.747884521484373
1766001771531708400,16.48870849609375,-0.0001527161948615,-0.041767880320549,0.1306487023830413,13.766665771484373
1766001771550489600,16.507489501953124,0.002901607658714,-0.1089630052447319,0.106366828083992,13.785446777343747
1766001771569270800,16.526270751953124,0.0030543238390237,-0.0306195970624685,0.0972038581967353,13.804228027343747
1766001771588052000,16.545052001953124,0.0059559317305684,-0.0657443255186081,0.0998000353574752,13.823009277343747
1766001771606833200,16.563833251953124,0.0175623632967472,-0.0559704862534999,0.098731018602848,13.841790527343747
1766001771625614600,16.582614501953124,-0.0030543238390237,-0.0095447618514299,0.1046869531273841,13.860571777343747
1766001771644395800,16.601395751953124,-0.0004581485991366,0.0286342874169349,0.0973565727472305,13.879353027343747
1766001771663177000,16.620177001953124,-0.0148134706541895,-0.0034361144062131,0.104534238576889,13.898134277343747
1766001771681958100,16.638958251953124,-0.0132863093167543,0.0055741411633789,0.1103374511003494,13.916915527343747
1766001771700739300,16.6577392578125,-0.0109955659136176,0.0266489759087562,0.1184314116835594,13.935696533203124
1766001771719520500,16.6765205078125,-0.013133592903614,0.0335212051868438,0.1202640011906623,13.954477783203124
1766001771738301700,16.6953017578125,-0.0181732270866632,0.0399352833628654,0.1120173260569572,13.973259033203124
1766001771757083000,16.714082763671875,-0.0166460648179054,0.0390189886093139,0.1013271957635879,13.992040039062498
1766001771775864300,16.7328642578125,-0.0137444576248526,0.0249690972268581,0.0851392820477485,14.010821533203124
1766001771794645500,16.7516455078125,-0.0071776611730456,0.0012980876490473,0.0633008629083633,14.029602783203124
1766001771813426700,16.7704267578125,-0.0102319847792387,0.0055741411633789,0.0338266380131244,14.048384033203124
1766001771832208000,16.789207763671875,-0.0114537142217159,0.0410043001174926,0.0019089524867013,14.067165039062498
1766001771850989000,16.807989013671875,-0.0125227281823754,0.0298560168594121,-0.0226783547550439,14.085946289062498
1766001771869770200,16.826770263671875,-0.0062613640911877,-0.0155006935819983,-0.0475710928440094,14.104727539062498
1766001771888551400,16.845551513671875,-0.0041233371011912,-0.0104610593989491,-0.0582612268626689,14.123508789062498
1766001771907332600,16.86433251953125,-0.0039706211537122,0.0135153830051422,-0.0634535774588584,14.142289794921872
1766001771926113800,16.88311376953125,0.002443459117785,0.0020616685505956,-0.0631481483578682,14.161071044921872
1766001771944895000,16.90189501953125,0.0042760535143315,-0.0113773569464683,-0.05337430909276,14.179852294921872
1766001771963676400,16.920676513671875,0.0044287694618105,0.0130572346970438,-0.0356592312455177,14.198633789062498
1766001771982457600,16.93945751953125,0.0059559317305684,0.0098501946777105,-0.0200821794569492,14.217414794921872
1766001772001238800,16.95823876953125,0.0224492810666561,-0.0825431048870086,0.0150425452739,14.236196044921872
