time,seconds_elapsed,z,y,x,t
1766001761810070800,6.76707080078125,6.258358955383301,-10.397802352905272,0.6258432865142822,4.0661572265625
1766001761828852000,6.78585205078125,2.5986993312835693,-10.887940406799316,0.0638467669486999,4.0849384765625
1766001761847633400,6.80463330078125,-0.323786973953247,-9.072103500366213,1.361517071723938,4.1037197265625
1766001761866414600,6.82341455078125,-1.383763551712036,-8.921061515808105,0.534325361251831,4.1225009765625
1766001761885196000,6.842196044921875,-0.4246925115585327,-9.35938549041748,0.4458456337451935,4.141282470703125
1766001761903977200,6.860977294921875,0.8411073088645935,-9.580819129943848,1.0452508926391602,4.160063720703125
1766001761922758400,6.87975830078125,1.5480897426605225,-10.146516799926758,0.5131378173828125,4.178844726562501
1766001761941539800,6.898539794921875,2.045013427734375,-10.399721145629885,0.3407198488712311,4.197626220703126
1766001761960321000,6.917321044921875,2.577521562576294,-10.273826599121094,0.7719317674636841,4.216407470703126
1766001761979102500,6.9361025390625,2.8159637451171875,-10.390448570251465,1.0385255813598633,4.235188964843751
1766001761997883600,6.954883544921875,1.972973108291626,-9.982720375061035,0.8267709612846375,4.2539699707031255
1766001762016665000,6.9736650390625,0.2250828742980957,-10.61380386352539,2.3804140090942383,4.272751464843751
1766001762035446300,6.9924462890625,-12.964391708374023,-8.147371292114258,5.298924446105957,4.2915327148437505
1766001762054227500,7.0112275390625,3.5487184524536133,28.61220932006836,-3.3631598949432373,4.3103139648437505
1766001762073009000,7.0300087890625,-5.967771053314209,18.9531364440918,-3.2828569412231445,4.3290952148437505
1766001762091790000,7.0487900390625,-7.281697273254394,-2.5133862495422363,-2.057849884033203,4.3478764648437505
1766001762110571500,7.067571533203125,9.564677238464355,30.115692138671875,3.004905939102173,4.3666579589843755
1766001762129352700,7.086352783203125,-8.636204242706299,24.81443977355957,-3.7341346740722656,4.3854392089843754
1766001762148134000,7.1051337890625,-15.005926132202148,-6.654961585998535,1.961209297180176,4.40422021484375
1766001762166915300,7.123915283203125,-9.990711212158203,-10.285983085632324,-3.4251925945281982,4.423001708984375
1766001762185696500,7.142696533203125,-3.107792854309082,-2.1280670166015625,-4.186281204223633,4.441782958984375
1766001762204478000,7.16147802734375,0.5657467842102051,2.402545928955078,0.353533923625946,4.460564453125
1766001762223259100,7.180259033203125,2.3743233680725098,-2.1810121536254883,4.64717960357666,4.479345458984375
1766001762242040300,7.199040283203125,2.6962363719940186,-5.88817024230957,3.8937833309173584,4.498126708984375
1766001762260821800,7.21782177734375,3.242288589477539,-6.167160034179688,2.2996692657470703,4.516908203125
1766001762279603000,7.23660302734375,3.291866540908813,-4.736812591552734,1.3766261339187622,4.535689453125
1766001762298384400,7.25538427734375,1.8345664739608765,-3.478922843933105,0.1172020435333252,4.554470703125
1766001762317165600,7.27416552734375,0.2449254989624023,-2.7120399475097656,-0.6271004676818848,4.573251953125
1766001762335946800,7.29294677734375,-0.9020514488220216,-0.8440532684326172,0.1614070534706115,4.592033203125
1766001762354728200,7.311728271484375,-1.90077543258667,1.770979881286621,0.5780229568481445,4.610814697265625
1766001762373509400,7.33050927734375,-2.0203816890716557,4.173758506774902,-0.3422758281230926,4.629595703125
1766001762392290800,7.349290771484375,-1.9245078563690183,4.757329940795898,-1.394018530845642,4.648377197265625
1766001762411072000,7.368072021484375,-1.1087687015533447,2.000473976135254,-1.592845439910889,4.667158447265625
1766001762429853200,7.386853271484375,1.025608777999878,-0.4966049194335937,-1.6238096952438354,4.685939697265625
1766001762448634600,7.405634521484375,3.4535865783691406,-1.426447868347168,0.1608827412128448,4.704720947265625
1766001762467415800,7.424415771484375,5.123190402984619,-1.767385482788086,1.1304152011871338,4.723502197265625
1766001762486197000,7.443197021484375,4.940483093261719,-0.8960866928100586,0.9727790355682372,4.742283447265625
1766001762504978400,7.461978515625,3.1131417751312256,0.1657476425170898,-0.1825242340564727,4.76106494140625
1766001762523759600,7.480759521484375,0.6890746355056763,0.7868213653564453,-0.5487700700759888,4.779845947265625
1766001762542541000,7.499541015625,-0.8287904262542725,0.8472194671630859,-0.2928970158100128,4.79862744140625
1766001762561322200,7.518322265625,-1.0724637508392334,0.1260910034179687,-0.5263974666595459,4.81740869140625
1766001762580103400,7.537103515625,-0.6224371194839478,-0.152780532836914,-0.3469440340995788,4.83618994140625
1766001762598884900,7.555884765625,-0.2431199550628662,-0.3034601211547851,0.087304413318634,4.85497119140625
1766001762617666000,7.574666015625,-0.2115665674209594,-0.5532379150390625,0.1957447826862335,4.87375244140625
1766001762636447200,7.593447265625,0.0106899738311767,-0.2414369583129882,0.0166242122650146,4.89253369140625
1766001762655228700,7.612228759765625,0.5528431534767151,-0.0578737258911132,-0.1117687225341796,4.911315185546875
1766001762674009900,7.631009765625,0.834923505783081,-0.1199808120727539,0.1250994205474853,4.930096191406251
1766001762692791000,7.649791015625,0.892616868019104,0.1964921951293945,-0.0708749294281005,4.948877441406251
1766001762711572500,7.668572509765625,1.0634610652923584,0.2004432678222656,0.1041112542152404,4.967658935546876
1766001762730353700,7.687353759765625,1.5135204792022705,0.0021686553955078,0.2311290204524994,4.986440185546876
1766001762749134800,7.706134765625,2.103675127029419,-0.0512723922729492,-0.1031481027603149,5.0052211914062505
1766001762767916300,7.724916259765625,2.593548059463501,-0.1771173477172851,0.0719941854476928,5.024002685546876
1766001762786697500,7.743697509765625,3.381052732467652,-0.1833457946777343,0.2412090599536895,5.0427839355468755
1766001762805479000,7.76247900390625,4.246542930603027,-0.0753803253173828,-0.0450967550277709,5.061565429687501
1766001762824260000,7.781260009765625,5.031721591949463,-0.2559404373168945,-0.2196480631828308,5.0803464355468755
1766001762843041300,7.800041259765625,4.881480693817139,-0.1005525588989257,-0.005936324596405,5.0991276855468755
1766001762861822700,7.81882275390625,3.98239803314209,0.0228996276855468,0.2701967358589172,5.1179091796875005
1766001762880604000,7.83760400390625,2.98688006401062,0.0556192398071289,0.273155152797699,5.1366904296875004
1766001762899385000,7.856385009765625,2.285298585891724,0.291574478149414,-1.3477764129638672,5.155471435546875
1766001762918166500,7.87516650390625,1.987466096878052,0.295999526977539,-2.004953622817993,5.1742529296875
1766001762936947700,7.89394775390625,2.3520727157592773,-0.4527902603149414,-1.0245661735534668,5.1930341796875
1766001762955729000,7.91272900390625,1.3017959594726562,-0.8581981658935547,0.5946676135063171,5.2118154296875
1766001762974510300,7.93151025390625,-0.3981328010559082,-0.7892847061157227,1.012998104095459,5.2305966796875
1766001762993291500,7.95029150390625,0.0139307975769042,-1.4888391494750977,0.9273116588592528,5.2493779296875
1766001763012073000,7.969072998046875,-1.3749608993530271,-1.749317646026611,1.3581295013427734,5.268159423828125
1766001763030854100,7.987854248046875,-1.811720848083496,-3.704755783081055,1.875900626182556,5.286940673828125
1766001763049635300,8.00663525390625,-4.304610252380371,-5.866169452667236,-0.5371267795562744,5.3057216796875
1766001763068416500,8.02541650390625,-6.302835464477539,-8.304667472839355,-2.1140501499176025,5.3245029296875
1766001763087198000,8.044197998046876,-11.622303009033203,-5.219913482666016,-0.7067276835441589,5.343284423828126
1766001763105979100,8.062979248046876,-14.940471649169922,-0.7947063446044922,0.3817999362945556,5.362065673828126
1766001763124760300,8.08176025390625,-16.727243423461914,10.724517822265623,1.77998149394989,5.3808466796875
1766001763143541800,8.100541748046876,-19.311674118041992,20.898813247680664,3.7741012573242183,5.399628173828126
1766001763162323000,8.119322998046876,-17.37262725830078,10.573786735534668,1.5023515224456787,5.418409423828126
1766001763181104000,8.138104248046876,-12.27057647705078,14.672572135925291,0.5837297439575195,5.437190673828126
1766001763199885300,8.15688525390625,-5.02608585357666,13.998353958129885,-2.176755905151367,5.4559716796875
1766001763218666800,8.175666748046876,-0.5340924263000488,3.571134567260742,-1.1293907165527344,5.474753173828126
1766001763237448000,8.194447998046876,7.87766170501709,-10.758430480957031,3.168447256088257,5.493534423828126
1766001763256229400,8.2132294921875,13.61457061767578,-12.119292259216309,1.9501909017562864,5.51231591796875
1766001763284401200,8.241401123046876,9.603799819946287,-9.4075288772583,1.7831945419311523,5.540487548828126
1766001763303182600,8.2601826171875,6.713795185089111,-10.034934043884276,-0.3896505832672119,5.55926904296875
1766001763321963800,8.2789638671875,2.7020139694213867,-9.398911476135254,-0.6772728562355042,5.57805029296875
1766001763340745000,8.297744873046875,0.0993464589118957,-9.835899353027344,1.0836775302886963,5.596831298828126
1766001763359526400,8.3165263671875,-0.6216216683387756,-9.202558517456056,1.3667867183685305,5.61561279296875
1766001763378307600,8.3353076171875,-0.2570478916168213,-9.136274337768556,0.3196428418159485,5.63439404296875
1766001763397088800,8.3540888671875,1.0169981718063354,-9.40736484527588,0.8873933553695679,5.65317529296875
1766001763415870200,8.3728701171875,1.9015202522277832,-9.572725296020508,1.3095691204071045,5.67195654296875
1766001763434651400,8.3916513671875,2.126227140426636,-9.946605682373049,0.9614611268043518,5.69073779296875
1766001763453432600,8.4104326171875,1.9287866353988647,-9.926809310913086,0.264946699142456,5.70951904296875
1766001763472214000,8.429214111328125,2.236525535583496,-9.745287895202637,0.9552146196365356,5.728300537109376
1766001763490995200,8.4479951171875,3.106639623641968,-9.939780235290527,1.6423873901367188,5.74708154296875
1766001763509776400,8.4667763671875,3.2412610054016118,-10.35251808166504,1.839915990829468,5.76586279296875
1766001763528557800,8.485557861328125,0.6225289702415466,-11.053558349609377,1.8697729110717771,5.7846442871093755
1766001763547339000,8.504339111328125,-14.11284637451172,-9.920329093933104,2.543823719024658,5.8034255371093755
1766001763566120400,8.523120361328125,2.707815647125244,32.72767639160156,-6.020790576934815,5.8222067871093754
1766001763584901600,8.541901611328125,-8.598065376281738,18.318248748779297,-0.6262214183807373,5.840988037109375
1766001763603682800,8.560682861328125,-12.70423984527588,-1.9502902030944824,-0.4623122811317444,5.859769287109375
1766001763622464000,8.579464111328125,-2.250540971755981,5.980418205261231,8.191853523254395,5.878550537109375
1766001763641245400,8.598245361328125,-11.265175819396973,47.98911285400391,3.4825332164764404,5.897331787109375
1766001763660026600,8.617026611328125,-8.271604537963867,3.297915458679199,-6.194819450378418,5.916113037109375
1766001763678807800,8.635807861328125,-8.021998405456543,-8.323391914367676,-5.402451992034912,5.934894287109375
1766001763697589200,8.65458935546875,-2.806333541870117,-5.854076862335205,-6.669595241546631,5.953675781249999
1766001763716370400,8.673370361328125,0.546597957611084,-0.5442419052124023,-2.3903725147247314,5.972456787109375
1766001763735151600,8.692151611328125,1.814165115356445,-1.9446892738342283,2.918649196624756,5.991238037109375
1766001763753932800,8.710932861328125,2.543959140777588,-4.988801956176758,5.781702041625977,6.010019287109375
1766001763772714200,8.72971435546875,3.0798587799072266,-5.667253017425537,5.146022796630859,6.028800781250001
1766001763791495400,8.748495361328125,3.362036943435669,-4.483443737030029,3.3847415447235107,6.047581787109375
