time,seconds_elapsed,z,y,x,t
1766001759774646300,4.731646240234375,-0.0519235059618949,-0.0990364551544189,0.0547487549483776,2.009603515625
1766001759793427700,4.750427734375,-0.0500909127295017,-0.0765871703624725,0.052152581512928,2.028385009765625
1766001759812209200,4.769209228515625,-0.0323758348822593,-0.0944549664855003,0.0626899972558021,2.04716650390625
1766001759830990300,4.787990234375,-0.0047342018224298,-0.0442113392055034,0.0747545808553695,2.065947509765625
1766001759849771800,4.806771728515625,-0.0201585385948419,0.1049923822283744,0.1111010313034057,2.08472900390625
1766001759868553000,4.825552978515625,-0.0117591470479965,0.2386190593242645,0.150654524564743,2.10351025390625
1766001759887334400,4.84433447265625,0.0267253331840038,0.3400225937366485,0.1865428388118744,2.122291748046875
1766001759906115600,4.863115478515625,0.0184786599129438,0.2955822050571441,0.2349538654088974,2.1410727539062497
1766001759924897000,4.88189697265625,0.048105601221323,0.2416733801364898,0.3249036967754364,2.1598542480468748
1766001759943678500,4.900678466796875,0.0652098134160041,0.2703840136528015,0.4412734508514404,2.1786357421875
1766001759962459600,4.919459716796875,0.0642935186624527,0.368122398853302,0.5660426020622253,2.1974169921874998
1766001759981241000,4.938240966796875,0.0455094277858734,0.3832412958145141,0.6759982109069824,2.2161982421874997
1766001760000022300,4.957022216796875,0.0642935186624527,0.4105774760246277,0.7804561257362366,2.2349794921874997
1766001760018803700,4.9758037109375,0.0675005614757537,0.3979020416736603,0.9226348996162416,2.2537609863281247
1766001760037585000,4.9945849609375,0.0606283284723758,0.3585012555122375,1.0820705890655518,2.2725422363281247
1766001760056366300,5.013366455078125,0.0268780495971441,0.2740492224693298,1.2523491382598877,2.2913237304687497
1766001760075147500,5.0321474609375,0.0261144693940877,0.3032180070877075,1.4064397811889648,2.3101047363281246
1766001760093929000,5.050928955078125,0.0328339822590351,0.3464366793632507,1.4882956743240356,2.3288862304687497
1766001760112710400,5.06971044921875,0.0591011680662632,0.3760636150836944,1.5933644771575928,2.3476677246093747
1766001760131491600,5.08849169921875,0.1178968995809555,0.3484219908714294,1.5600723028182983,2.3664489746093746
1766001760150273000,5.10727294921875,0.1672242283821106,0.1005636155605316,1.5275437831878662,2.3852302246093746
1766001760169054200,5.12605419921875,0.3025307953357696,-0.0735328495502471,1.3455060720443726,2.4040114746093746
1766001760187835600,5.144835693359375,0.393244206905365,-0.0377972573041915,1.2425752878189087,2.4227929687499996
1766001760206616800,5.163616943359375,0.5642863512039185,0.0081703159958124,0.908585011959076,2.4415742187499996
1766001760225398300,5.182398193359375,0.4216494262218475,0.0489455386996269,0.529543399810791,2.4603554687499996
1766001760244179500,5.201179443359375,0.0561995580792427,-0.3155880272388458,-0.1805869042873382,2.4791367187499995
1766001760262961000,5.2199609375,-0.1794415265321731,-0.5284743905067444,-1.0124319791793823,2.4979182128906245
1766001760281742000,5.2387421875,-0.1945604383945465,-0.3548360764980316,-1.9775983095169067,2.5166994628906245
1766001760300523500,5.2575234375,-0.287564605474472,-0.7395281791687012,-2.8618252277374268,2.5354807128906245
1766001760319304700,5.2763046875,-0.3634645342826843,-1.166675329208374,-3.7164249420166016,2.5542619628906245
1766001760338086100,5.295086181640625,-0.5757400393486023,-1.492266297340393,-4.786965370178223,2.5730434570312495
1766001760356867300,5.313867431640625,-0.4696022868156433,-2.4113123416900635,-5.34544849395752,2.5918247070312495
1766001760375648800,5.332648681640625,-1.2287545204162598,-2.8525094985961914,-4.41326904296875,2.6106059570312494
1766001760394430000,5.351429931640625,0.0258090365678071,-1.2584577798843384,-2.00172758102417,2.6293872070312494
1766001760413211400,5.37021142578125,0.287106454372406,-1.5318198204040527,-0.5843685269355774,2.6481687011718744
1766001760431992600,5.38899267578125,0.0981965139508247,-0.885830283164978,0.441426157951355,2.6669499511718744
1766001760450774000,5.40777392578125,0.1690568327903747,-0.5298488140106201,0.9362266063690186,2.6857312011718744
1766001760469555500,5.426555419921875,0.2018908113241195,0.1245400533080101,0.9055306911468506,2.7045126953124994
1766001760488336600,5.445336669921875,-0.0083993906155228,0.987233817577362,0.3669006526470184,2.7232939453124994
1766001760507117800,5.464117919921875,-0.1285870373249054,1.2480731010437012,-0.1136972084641456,2.7420751953124993
1766001760525899300,5.482899169921875,-0.096211202442646,0.6456077098846436,-0.307646781206131,2.7608564453125
1766001760544680700,5.5016806640625,-0.0879645273089408,-0.1425605714321136,-0.1648571342229843,2.7796379394531243
1766001760572852500,5.5298525390625,-0.0102319847792387,-0.7586176991462708,0.2690095901489258,2.807809814453125
1766001760591634000,5.548634033203125,-0.0091629717499017,-0.0947603955864906,0.5519927144050598,2.82659130859375
1766001760610415000,5.5674150390625,-0.1191186308860778,1.2306634187698364,0.9409608244895936,2.845372314453125
1766001760629196500,5.586196533203125,-0.3433060050010681,2.593502759933472,1.6898810863494873,2.86415380859375
1766001760647977700,5.604977783203125,-0.2982547283172607,3.532554626464844,3.901364326477051,2.88293505859375
1766001760666759200,5.62375927734375,0.8422298431396484,3.405342102050781,3.8277549743652335,2.901716552734375
1766001760685540600,5.64254052734375,0.7170025110244751,1.271133303642273,2.161774158477783,2.920497802734375
1766001760704321800,5.66132177734375,0.448527455329895,-2.3274712562561035,1.705458164215088,2.939279052734375
1766001760723103000,5.68010302734375,1.2644901275634766,-2.404134750366211,1.0110576152801514,2.958060302734375
1766001760741884400,5.698884521484375,0.8272636532783508,-1.6168826818466189,1.034881353378296,2.976841796875
1766001760760665600,5.71766552734375,0.40477428771555424,3.306840181350708,-0.9627992510795592,2.995622802734375
1766001760779447000,5.736447021484375,-0.6688969135284424,2.7275876998901367,-0.9672279953956604,3.014404296875
1766001760798228200,5.755228271484375,-0.0177150778472423,-0.1729510873556137,-1.2986221313476562,3.033185546875
1766001760817009700,5.774009765625,0.4778489768505096,-2.627711296081543,-1.4956260919570925,3.051967041015625
1766001760835790800,5.792790771484375,0.6071996092796326,-3.990397930145264,-1.5240312814712524,3.070748046875
1766001760854572300,5.811572265625,0.1803578287363052,-2.9346706867218018,-1.468595266342163,3.089529541015625
1766001760873353500,5.830353515625,-0.0161879174411296,-1.2439497709274292,-1.236772060394287,3.108310791015625
1766001760892135000,5.849135009765625,-0.0293215103447437,0.4489092528820038,-0.9327141642570496,3.12709228515625
1766001760910916000,5.867916015625,-0.0346665754914283,1.1932480335235596,-0.687451958656311,3.145873291015625
1766001760929697500,5.886697509765625,0.111635535955429,1.1766018867492676,-0.6194932460784912,3.16465478515625
1766001760948478700,5.905478759765625,0.2768744528293609,0.9818887710571288,-0.6414843797683716,3.18343603515625
1766001760967260200,5.92426025390625,-0.1922696828842163,0.8389464020729065,-0.734183132648468,3.202217529296875
1766001760986041300,5.943041259765625,-0.2985601723194122,0.5480220913887024,-0.8139009475708008,3.22099853515625
1766001761004822800,5.96182275390625,-0.0004581485991366,-0.4831176698207855,-0.6020836234092712,3.239780029296875
1766001761023604000,5.98060400390625,0.1519526094198227,-1.0985639095306396,-0.3169624507427215,3.258561279296875
1766001761042385400,5.999385498046875,0.0792597085237503,-0.4870882928371429,-0.0825431048870086,3.2773427734375
1766001761061166600,6.01816650390625,-0.0054977829568088,0.4055378437042236,0.0599411055445671,3.2961237792968747
1766001761079947800,6.03694775390625,-0.0300850905478,0.6856193542480469,0.0718529671430587,3.3149050292968747
1766001761098729200,6.055729248046875,-0.0077885258942842,0.3618610203266144,-0.004657844081521,3.3336865234374997
1766001761117510400,6.074510498046875,-0.044287696480751,-0.1787542998790741,-0.1081994250416755,3.3524677734374997
1766001761136291800,6.093291748046875,-0.0620027743279933,-0.1692859083414077,-0.2050214856863021,3.3712490234374997
1766001761155073000,6.112072998046875,-0.0859792158007621,0.1135444939136505,-0.2570977210998535,3.3900302734374996
1766001761173854500,6.1308544921875,-0.1189659163355827,0.3293324708938598,-0.2830594778060913,3.4088117675781247
1766001761192635600,6.1496357421875,-0.119271345436573,0.367511510848999,-0.2705367505550384,3.4275930175781246
1766001761211416800,6.168416748046875,-0.0994182452559471,0.3230711221694946,-0.1970802545547485,3.4463740234374995
1766001761230198300,6.1871982421875,-0.0618500597774982,0.2621373534202575,-0.0895680487155914,3.4651555175781246
1766001761248979500,6.2059794921875,-0.0270307660102844,0.1799760311841964,0.0072540193796157,3.4839367675781245
1766001761267761000,6.224760986328125,0.0032070400193333,0.1133917719125747,0.1196531355381012,3.5027182617187496
1766001761286542000,6.2435419921875,0.019700389355421,0.0790306329727172,0.2369391769170761,3.5214992675781245
1766001761305323500,6.262323486328125,0.0291687939316034,0.1450040340423584,0.3762163519859314,3.5402807617187495
1766001761324104700,6.281104736328125,0.0577267222106456,0.2836703360080719,0.5823832154273987,3.5590620117187495
1766001761342886000,6.299885986328125,0.0820086002349853,0.410119354724884,0.8743765950202942,3.5778432617187494
1766001761361667300,6.318667236328125,0.0904079899191856,0.451047271490097,1.2410482168197632,3.5966245117187494
1766001761380448500,6.337448486328125,0.1091920807957649,0.4767036139965057,1.6136757135391235,3.6154057617187494
1766001761399230000,6.35622998046875,0.1708894222974777,0.8507055640220642,1.8867322206497192,3.6341872558593744
1766001761418011100,6.37501123046875,0.2095266133546829,1.0441969633102417,2.1144320964813232,3.6529685058593744
1766001761436792600,6.39379248046875,0.1785252392292022,0.7580068111419678,2.228663682937622,3.6717497558593744
1766001761455573800,6.41257373046875,0.1754709035158157,0.6500364542007446,2.264246702194214,3.6905310058593743
1766001761474355200,6.431355224609375,0.1556178033351898,0.5953640937805176,2.279365539550781,3.7093124999999993
1766001761493136400,6.450136474609375,0.0797178521752357,0.3508654534816742,2.32258415222168,3.7280937499999993
1766001761511917600,6.46891748046875,0.0328339822590351,0.1663842946290969,2.1228315830230717,3.746874755859375
1766001761540089600,6.497089599609375,0.1609628647565841,-0.3042870163917541,1.7691407203674316,3.775046875
1766001761558870800,6.515870849609375,0.5250383019447327,-0.4515054225921631,1.3532946109771729,3.793828125
1766001761577652200,6.53465234375,0.5056433081626892,-0.0523052960634231,0.9307288527488708,3.812609619140625
1766001761596433400,6.553433349609375,0.2877173125743866,0.1098792999982833,0.2769508063793182,3.831390625
1766001761615214800,6.57221484375,0.2448040544986724,-0.1181259751319885,-0.6193405389785767,3.850172119140625
1766001761633996000,6.59099609375,0.0536033846437931,-0.1259144991636276,-1.5168535709381104,3.868953369140625
1766001761652777500,6.609777587890625,-0.2249509543180465,-0.4496728479862213,-2.398789644241333,3.88773486328125
1766001761671558700,6.62855859375,-0.0647516697645187,-1.0704641342163086,-3.163439512252808,3.906515869140625
1766001761690339800,6.64733984375,0.0174096468836069,-1.5194498300552368,-3.957869291305542,3.925297119140625
1766001761709121300,6.666121337890625,-0.4466948807239532,-2.0420446395874023,-4.762378215789795,3.94407861328125
1766001761727902500,6.68490234375,-1.3142756223678589,-3.027369499206543,-4.708927631378174,3.962859619140625
1766001761746684000,6.703683837890625,-0.905912458896637,-1.8293108940124512,-3.5762314796447754,3.98164111328125
1766001761765465000,6.722465087890625,0.2008218020200729,-0.4614319801330566,-1.5246421098709106,4.00042236328125
