time,seconds_elapsed,z,y,x,t
1766001776282007000,3.078007080078125,-0.4575377106666565,-1.067409873008728,-3.2578182220458984,1.0141850585937497
1766001776310178800,3.1061787109375,-0.4575377106666565,-0.1750127673149109,-2.2934154272079468,1.0423566894531247
1766001776328960000,3.1249599609375,-0.8365793228149414,-1.067409873008728,-3.2578182220458984,1.0611379394531246
1766001776347741200,3.1437412109375,0.0748309344053268,0.7173843383789062,-1.3290126323699951,1.0799191894531246
1766001776366522600,3.162522705078125,-0.1522580534219741,-0.2948186099529266,-0.6938660144805908,1.0987006835937496
1766001776385303800,3.1813037109375,0.0077885258942842,-1.635666847229004,-0.3545306324958801,1.117481689453125
1766001776404085000,3.2000849609375,0.0778852626681327,-1.216613531112671,-0.34903284907341,1.136262939453125
1766001776422866200,3.2188662109375,0.0048869182355701,-0.5133554935455322,-0.5504655241966248,1.155044189453125
1766001776441647400,3.2376474609375,0.0691804364323616,-0.6695841550827026,-0.626518189907074,1.173825439453125
1766001776460428500,3.256428466796875,0.144011378288269,-0.6967676281929016,-0.6143009066581726,1.1926064453124998
1766001776479209700,3.275209716796875,0.1846338808536529,-0.8329904675483704,-0.4165334105491638,1.2113876953124998
1766001776497991000,3.293990966796875,0.2959639728069305,-1.060842990875244,-0.0917060747742652,1.2301689453124998
1766001776516772400,3.3127724609375,0.291229784488678,-0.4128682315349579,0.2829067409038543,1.2489504394531248
1766001776535553500,3.331553466796875,0.1769980639219284,0.643927812576294,0.775263786315918,1.2677314453124997
1766001776554334700,3.350334716796875,0.1235474050045013,1.37482750415802,1.3879611492156982,1.2865126953124997
1766001776573116000,3.369115966796875,0.1024725660681724,1.6011528968811035,2.0060036182403564,1.3052939453124996
1766001776591897000,3.38789697265625,0.0992655232548713,1.4879902005195618,2.5600578784942627,1.3240749511718746
1766001776610678300,3.40667822265625,0.0792597085237503,1.6011528968811035,2.5600578784942627,1.342856201171875
1766001776629459500,3.42545947265625,0.4109592735767364,0.125303640961647,2.5600578784942627,1.361637451171875
1766001776648241000,3.444240966796875,0.2624427787959575,-0.16012292355298996,2.932227373123169,1.3804189453125
1766001776667022000,3.46302197265625,0.1139262840151786,0.125303640961647,2.3560290336608887,1.399199951171875
1766001776685803300,3.48180322265625,0.8006910085678101,-0.4455494880676269,2.217820882797241,1.4179812011718749
1766001776704584400,3.50058447265625,0.2944368124008178,0.5364156365394592,1.791131854057312,1.4367624511718748
1766001776723365600,3.51936572265625,-0.7218894362449646,1.5915318727493286,1.1747692823410034,1.4555437011718748
1766001776742146800,3.538146728515625,-0.5273290276527405,0.3120755553245544,0.2170860767364502,1.4743247070312497
1766001776760928000,3.556927978515625,-0.2446513473987579,-0.18990258872509,-0.575663685798645,1.4931059570312497
1766001776779709200,3.575709228515625,0.1379027217626571,-0.1550832986831665,-1.0933716297149658,1.5118872070312497
1766001776798490400,3.594490478515625,0.1510363221168518,-0.4200458824634552,-1.3455060720443726,1.5306684570312497
1766001776817271600,3.613271484375,-0.0108428495004773,-0.7989347577095032,-1.4333178997039795,1.5494494628906246
1766001776836052700,3.632052734375,-0.0560468435287475,-1.0713804960250854,-1.364748239517212,1.568230712890625
1766001776854834200,3.650834228515625,-0.1153007298707962,-0.8210785984992981,-1.2089776992797852,1.5870122070312496
1766001776873615400,3.669615478515625,-0.2318231910467147,-0.2021198868751526,-0.9953277707099916,1.60579345703125
1766001776892396500,3.688396484375,-0.2390008419752121,0.4786889255046844,-0.7554106712341309,1.624574462890625
1766001776911177700,3.707177734375,-0.1646280586719513,0.663475513458252,-0.4935023784637451,1.6433557128906249
1766001776929959000,3.725958984375,-0.0371100343763828,0.5020545125007629,-0.2467130124568939,1.6621369628906248
1766001776948740000,3.744739990234375,0.0653625279664993,0.2538906633853912,-0.0162642747163772,1.6809179687499998
1766001776967521300,3.763521240234375,0.0798705667257309,0.0032833982259035,0.1245400533080101,1.6996992187499997
1766001776986302700,3.782302734375,0.067805990576744,0.0576503649353981,0.1234710440039634,1.7184807128906248
1766001777005084000,3.801083984375,0.0926987305283546,0.217544212937355,0.054443322122097,1.7372619628906247
1766001777023865000,3.819864990234375,0.0436768308281898,0.1451567411422729,-0.0497091226279735,1.7560429687499997
1766001777042646300,3.838646240234375,0.0054977829568088,-0.0807105079293251,-0.1613446623086929,1.7748242187499996
1766001777061427500,3.857427490234375,0.0039706211537122,-0.2010508775711059,-0.2406043708324432,1.7936054687499996
1766001777080208600,3.876208740234375,-0.0432186834514141,-0.2415206581354141,-0.3175733387470245,1.8123867187499996
1766001777098989800,3.89498974609375,-0.0940731763839721,-0.1295796930789947,-0.3716348707675934,1.831167724609375
1766001777117771000,3.91377099609375,-0.1230892539024353,0.0228310711681842,-0.3861429095268249,1.849948974609375
1766001777136552400,3.932552490234375,-0.1122464016079902,0.0319940410554409,-0.3606393039226532,1.86873046875
1766001777155333600,3.951333740234375,-0.0937677472829818,-0.0124463699758052,-0.3191004991531372,1.88751171875
1766001777174114800,3.97011474609375,-0.0473420210182666,-0.0529161617159843,-0.2925278842449188,1.9062927246093748
1766001777192896000,3.98889599609375,-0.0048869182355701,-0.0171805713325738,-0.2882518172264099,1.9250739746093748
1766001777211677200,4.00767724609375,-0.016951497644186,0.028176138177514,-0.3116174042224884,1.9438552246093748
1766001777230458400,4.026458251953125,-0.0302378069609403,-0.0147371124476194,-0.3530034720897674,1.9626362304687497
1766001777249239600,4.045239501953125,-0.0378736145794391,-0.1396589577198028,-0.4182133078575134,1.9814174804687497
1766001777268020700,4.064020751953125,-0.0548251122236251,-0.1874591261148452,-0.4922806620597839,2.00019873046875
1766001777286802200,4.08280224609375,-0.0952949076890945,-0.166842445731163,-0.53931725025177,2.018980224609375
1766001777305583400,4.101583251953125,-0.1212566569447517,-0.2198349684476852,-0.5432878732681274,2.03776123046875
1766001777324364500,4.120364501953125,-0.134695678949356,-0.2546542584896087,-0.4854084253311157,2.05654248046875
1766001777343145700,4.139145751953125,-0.1266017258167266,-0.2441168427467346,-0.3717875778675079,2.07532373046875
1766001777361927000,4.157927001953125,-0.1033888608217239,-0.1419496983289718,-0.2207512557506561,2.09410498046875
1766001777380708000,4.1767080078125,-0.0873536616563797,-0.0312304627150297,-0.0739909932017326,2.112885986328125
1766001777399489300,4.1954892578125,-0.0852156355977058,0.0322994738817215,0.0368809625506401,2.131667236328125
1766001777418270700,4.214270751953125,-0.0794124230742454,0.0252745300531387,0.0993418842554092,2.15044873046875
1766001777437052000,4.233052001953125,-0.0818558782339096,0.0038942629471421,0.1272889524698257,2.16922998046875
1766001777455833000,4.2518330078125,-0.0734564885497093,-0.0852919965982437,0.1534034162759781,2.1880109863281256
1766001777474614300,4.2706142578125,-0.0642935186624527,-0.1314122825860977,0.1837939471006393,2.2067922363281256
1766001777493395500,4.2893955078125,-0.0598647482693195,-0.088346317410469,0.2103665620088577,2.2255734863281256
1766001777512176600,4.3081767578125,-0.0587957352399826,-0.1001054644584655,0.2409097999334335,2.2443547363281255
1766001777530957800,4.326957763671875,-0.0395534932613372,-0.124845489859581,0.2693150043487549,2.2631357421875005
1766001777549739000,4.345739013671875,-0.0314595364034175,-0.062537282705307,0.2699258625507355,2.2819169921875004
1766001777568520400,4.3645205078125,-0.0328339822590351,0.0578030794858932,0.2456440031528473,2.3006984863281255
1766001777587301600,4.383301513671875,-0.0253508891910314,0.0805577933788299,0.1863901168107986,2.3194794921875004
1766001777606082800,4.402082763671875,-0.0290160775184631,0.0619264170527458,0.1121700480580329,2.3382607421875004
1766001777624864000,4.420864013671875,-0.0177150778472423,-0.0167224239557981,0.0303141642361879,2.3570419921875003
1766001777643645200,4.439645263671875,-0.0140498895198106,-0.0848338454961776,-0.0474183782935142,2.3758232421875003
1766001777662426400,4.45842626953125,-0.0068722288124263,-0.0655916035175323,-0.1228601783514022,2.394604248046875
1766001777681207600,4.47720751953125,-0.006566796451807,0.0049632764421403,-0.2047160565853119,2.413385498046875
1766001777699988700,4.49598876953125,-0.0085521070286631,-0.0167224239557981,-0.2760345339775085,2.432166748046875
1766001777718770200,4.514770263671875,-0.0122172953560948,-0.046807512640953,-0.3281107544898987,2.4509482421875
1766001777737551400,4.53355126953125,-0.0003054323897231,-0.0471129454672336,-0.3522399067878723,2.469729248046875
1766001777756332500,4.55233251953125,0.0025961752980947,-0.0377972573041915,-0.3639990389347076,2.488510498046875
1766001777775113700,4.57111376953125,0.0042760535143315,0.001450803829357,-0.3720930218696594,2.507291748046875
1766001777793895000,4.58989501953125,0.013439024798572,0.0148898288607597,-0.3568213880062103,2.526072998046875
1766001777812676000,4.608676025390625,0.0100792692974209,0.0200821794569492,-0.3177260458469391,2.54485400390625
1766001777831457300,4.627457275390625,0.0155770517885684,-0.0269544087350368,-0.2525162398815155,2.56363525390625
1766001777850238700,4.64623876953125,0.0384844802320003,0.0953712612390518,-0.1954003721475601,2.582416748046875
1766001777869020000,4.66502001953125,-0.0056504993699491,0.3699549734592438,-0.1515708267688751,2.601197998046875
1766001777887801000,4.683801025390625,-0.0192422401160001,0.3090212345123291,-0.1249982044100761,2.61997900390625
1766001777906582300,4.702582275390625,0.0142026059329509,-0.0263435430824756,-0.0985783040523529,2.63876025390625
1766001777925363500,4.721363525390625,0.0282524954527616,-0.1425605714321136,-0.0854447111487388,2.6575415039062507
1766001777944144600,4.74014453125,0.0213802680373191,0.0373391099274158,-0.0736855641007423,2.6763225097656256
1766001777962925800,4.75892578125,-0.0080939587205648,0.1202640011906623,-0.0654388889670372,2.6951037597656256
1766001777981707300,4.777707275390625,0.0056504993699491,0.1025489270687103,-0.0746018588542938,2.7138852539062506
1766001778000488400,4.796488525390625,0.0045814858749508,0.1335503160953521,-0.0655916035175323,2.7326665039062505
1766001778019269600,4.81526953125,-0.0003054323897231,0.1237764731049537,-0.0394771359860897,2.7514475097656255
1766001778038050800,4.83405078125,0.0148134706541895,0.0590248107910156,0.0012980876490473,2.7702287597656254
1766001778066222600,4.86222265625,0.0213802680373191,0.0309250298887491,0.0843756943941116,2.7984006347656254
1766001778085003800,4.881003662109375,0.0331394150853157,0.0345902182161808,0.1416442692279815,2.8171816406250003
1766001778103785200,4.89978515625,0.0476474538445472,0.0862082913517952,0.2192240953445434,2.8359631347656253
1766001778122566400,4.91856640625,0.0461202897131443,0.1297324001789093,0.3279580175876617,2.8547443847656253
1766001778150738200,4.94673828125,0.0872009471058845,0.1143080741167068,0.5594757795333862,2.8829162597656253
1766001778169519400,4.965519287109375,0.1406516134738922,0.1827249228954315,0.7799979448318481,2.901697265625
1766001778188300500,4.984300537109375,0.1927278339862823,0.2997055351734161,1.0606902837753296,2.920478515625
1766001778207081700,5.003081787109375,0.1925751268863678,0.3936260044574737,1.3193916082382202,2.939259765625
1766001778225863200,5.02186328125,0.185550183057785,0.4899899065494537,1.552283763885498,2.958041259765625
1766001778244644400,5.040644287109375,0.1719584316015243,0.4907535016536712,1.8213696479797363,2.976822265625
1766001778263425500,5.059425537109375,0.1537852138280868,0.4823541045188904,1.990731954574585,2.995603515625
1766001778282206700,5.078206787109375,0.2874118685722351,0.3300960659980774,2.0423500537872314,3.014384765625
