time,seconds_elapsed,z,y,x,t
1766001782470419500,9.26641943359375,3.4943203926086426,-0.1809654235839843,-0.5696746706962585,7.202597412109375
1766001782498591200,9.29459130859375,2.896641731262207,-1.0426044464111328,-1.4345333576202393,7.230769287109375
1766001782517372400,9.313372314453124,2.6808106899261475,-1.220317840576172,-1.4069688320159912,7.249550292968749
1766001782536153600,9.332153564453124,2.018089771270752,-1.2968039512634275,-0.798782467842102,7.268331542968749
1766001782554934800,9.350934814453124,1.8802119493484497,-0.7708988189697266,0.5973593592643738,7.287112792968749
1766001782573716200,9.36971630859375,1.1126458644866943,0.1908216476440429,1.4998401403427124,7.305894287109375
1766001782592497400,9.388497314453126,0.415926456451416,0.4848136901855469,1.54022216796875,7.324675292968751
1766001782611278600,9.407278564453126,1.410290002822876,-1.1388330459594729,1.6501669883728027,7.343456542968751
1766001782630059800,9.426059814453126,-0.4627022743225097,-1.881699085235596,0.4921442866325378,7.362237792968751
1766001782648841200,9.44484130859375,-1.8599157333374023,-3.245003700256348,1.0023421049118042,7.381019287109375
1766001782667622400,9.463622314453126,-6.488343715667725,-4.407009124755859,0.0086441934108734,7.3998002929687505
1766001782686403600,9.482403564453126,-9.64428424835205,-10.299230575561523,-0.0188149660825729,7.4185815429687505
1766001782705184800,9.501184814453126,-14.941689491271973,-8.648419380187988,0.376787781715393,7.4373627929687505
1766001782723966000,9.519966064453126,-16.383560180664062,-0.3696155548095703,1.099043369293213,7.45614404296875
1766001782742747100,9.5387470703125,-18.125057220458984,25.558528900146484,5.922255992889404,7.4749250488281245
1766001782761528600,9.557528564453126,-22.266536712646484,18.13536071777344,-0.2903926372528076,7.49370654296875
1766001782780309800,9.576309814453126,-18.857501983642575,9.93568229675293,-5.021334648132324,7.51248779296875
1766001782799091000,9.595091064453126,-11.199209213256836,20.045352935791016,-7.376553535461426,7.53126904296875
1766001782817872100,9.6138720703125,-4.095620632171631,9.728256225585938,-1.3334323167800903,7.550050048828124
1766001782846044200,9.642044189453124,18.302303314208984,-12.980835914611816,7.333359241485596,7.5782221679687485
1766001782864825300,9.660825439453124,17.97547149658203,-19.04047393798828,6.651573181152344,7.5970034179687485
1766001782883606500,9.6796064453125,11.46157169342041,-8.870817184448242,3.541609287261963,7.615784423828124
1766001782902387700,9.6983876953125,6.416357517242432,-8.725955963134766,-0.3119926452636719,7.634565673828124
1766001782921169000,9.7171689453125,0.530508816242218,-9.517995834350586,0.2934837937355041,7.653346923828124
1766001782939950300,9.735950439453124,-2.264432907104492,-8.885618209838867,3.588953018188477,7.672128417968748
1766001782958731500,9.7547314453125,-1.4839856624603271,-8.026556015014648,1.2636454105377195,7.690909423828124
1766001782977512700,9.7735126953125,-0.1431052684783935,-9.238255500793455,1.1824417114257812,7.709690673828124
1766001782996294000,9.7922939453125,0.6464417576789856,-9.43083953857422,0.4684808254241943,7.728471923828124
1766001783015075300,9.811075439453123,1.326210379600525,-9.18588161468506,-0.4224642515182495,7.747253417968748
1766001783033856500,9.8298564453125,1.826590061187744,-9.60921859741211,-0.5046080350875854,7.766034423828124
1766001783052637700,9.8486376953125,2.0701472759246826,-9.824317932128906,1.1750879287719729,7.784815673828124
1766001783071419000,9.8674189453125,2.3540425300598145,-10.491432189941406,2.449043273925781,7.803596923828124
1766001783090200300,9.886200439453123,2.77642822265625,-10.712862014770508,2.4852218627929688,7.822378417968748
1766001783108981500,9.9049814453125,3.606084108352661,-10.55780792236328,2.142286777496338,7.841159423828124
1766001783127762700,9.9237626953125,3.9902868270874015,-10.69188117980957,1.5944362878799438,7.859940673828126
1766001783146543900,9.9425439453125,2.1595749855041504,-9.993383407592772,0.9731127619743348,7.878721923828126
1766001783165325300,9.9613251953125,3.114493131637573,-16.79230499267578,-1.065027952194214,7.897503173828126
1766001783184106500,9.9801064453125,-7.093177795410156,27.367401123046875,-7.843870639801025,7.916284423828126
1766001783202887700,9.9988876953125,-9.293904304504396,2.3923873901367188,9.02880859375,7.9350656738281256
1766001783221668900,10.0176689453125,-4.3963117599487305,2.3923873901367188,1.3460052013397217,7.9538469238281255
1766001783240450000,10.036449951171877,2.6847705841064453,2.3923873901367188,9.36886501312256,7.972627929687501
1766001783259231500,10.0552314453125,-7.959279537200927,12.21802806854248,-4.765091419219971,7.9914094238281255
1766001783278012700,10.0740126953125,-22.20188331604004,-10.759456634521484,-4.341323852539063,8.010190673828125
1766001783296793900,10.0927939453125,-11.522247314453123,-17.085180282592773,-10.12224578857422,8.028971923828125
1766001783315575000,10.111574951171876,-1.3769149780273438,0.1900892257690429,-7.83350658416748,8.047752929687501
1766001783334356200,10.130356201171876,2.339175224304199,8.621048927307129,0.4214316308498382,8.066534179687501
1766001783353137700,10.1491376953125,3.1257195472717285,2.087974548339844,9.3147611618042,8.085315673828125
1766001783371918800,10.1679189453125,3.993342399597168,-4.928069591522217,8.79678726196289,8.104096923828125
1766001783390700000,10.186699951171876,6.252048492431641,-10.44168472290039,3.9263510704040527,8.122877929687501
1766001783409481200,10.205481201171876,6.6269121170043945,-10.137995719909668,1.1802045106887815,8.141659179687501
1766001783428262700,10.2242626953125,5.269776821136475,-6.06993293762207,-1.9301762580871584,8.160440673828125
1766001783447043800,10.2430439453125,2.0757758617401123,-2.5461788177490234,-0.9287047386169434,8.179221923828125
1766001783465825000,10.261824951171874,-0.5225969552993774,-0.5087881088256836,1.4293065071105957,8.1980029296875
1766001783484606200,10.280606201171874,-3.049530506134033,3.769369125366211,0.6739755272865295,8.2167841796875
1766001783503387400,10.299387451171874,-3.0884549617767334,7.576820373535156,0.243297666311264,8.2355654296875
1766001783522168800,10.3181689453125,0.4595987796783447,5.364546775817871,-3.068783760070801,8.254346923828125
1766001783540950000,10.336949951171874,5.897290229797363,-0.7967100143432617,-5.8414411544799805,8.273127929687499
1766001783559731200,10.355731201171874,7.472705364227295,-1.5214643478393557,-0.7312238216400146,8.291909179687499
1766001783578512400,10.374512451171874,3.612717628479004,0.0860233306884765,2.368579864501953,8.310690429687499
1766001783597293600,10.39329345703125,-0.1222884654998779,-0.2495965957641601,1.2260229587554932,8.329471435546875
1766001783616075000,10.412074951171874,-1.5360928773880005,-0.3260145187377929,-0.7963925004005432,8.348252929687499
1766001783634856200,10.430856201171874,-1.565396428108215,-0.8398332595825195,-0.6193451285362244,8.367034179687499
1766001783653637400,10.449637451171874,-1.1997945308685305,-0.7755193710327148,0.58841872215271,8.385815429687499
1766001783672418800,10.468418701171874,-1.245688796043396,-0.1460819244384765,1.3187050819396973,8.404596679687499
1766001783691200000,10.487199951171876,-1.4324370622634888,0.8165788650512695,0.0420965552330017,8.4233779296875
1766001783709981200,10.505981201171876,-0.8208043575286865,1.1409664154052734,-0.6017260551452637,8.4421591796875
1766001783728762400,10.524762451171876,0.0763918161392211,0.0667276382446289,-0.5161343216896057,8.4609404296875
1766001783747543600,10.54354345703125,1.1767094135284424,-0.4073953628540039,0.4009327292442322,8.479721435546875
1766001783766325000,10.562324951171876,2.2617225646972656,-0.1077413558959961,0.6697930097579956,8.4985029296875
1766001783785106200,10.581106201171876,2.243804693222046,0.1827363967895507,0.2503833174705505,8.5172841796875
1766001783803887400,10.599887451171876,1.673345923423767,0.0712652206420898,0.4517428278923034,8.5360654296875
1766001783822668500,10.61866845703125,1.3999110460281372,-0.2323255538940429,0.1579163074493408,8.554846435546875
1766001783841450000,10.637449951171876,1.196441411972046,-0.1489686965942382,0.5919230580329895,8.5736279296875
1766001783860231200,10.656231201171876,0.6526163220405579,0.2073192596435547,0.7683918476104736,8.5924091796875
1766001783879012400,10.675012451171876,0.0186493396759033,0.7341299057006836,0.5381383895874023,8.6111904296875
1766001783897793500,10.69379345703125,-0.104083776473999,0.4513893127441406,-0.4071956276893616,8.629971435546874
1766001783916574700,10.71257470703125,0.0894622802734375,-0.1595544815063476,-0.9058290123939514,8.648752685546874
1766001783935356200,10.731356201171875,0.3031466007232666,-0.2627696990966797,-0.3318817019462585,8.6675341796875
1766001783954137300,10.750137451171875,0.4434261322021484,-0.0744171142578125,0.0076510906219482,8.6863154296875
1766001783972918500,10.76891845703125,0.5630998611450195,0.0951766967773437,-0.5071171522140503,8.705096435546874
1766001783991700000,10.787699951171875,0.7672250270843506,0.3730249404907226,-0.1980152726173401,8.7238779296875
1766001784010481200,10.806481201171875,1.1406333446502686,0.2672061920166015,-0.0785709023475647,8.7426591796875
1766001784029262300,10.825262451171875,1.7459895610809326,0.0169496536254882,-0.3269626498222351,8.7614404296875
1766001784048043500,10.84404345703125,2.4363884925842285,-0.3006153106689453,-0.623471200466156,8.780221435546874
1766001784066825000,10.862824951171875,3.4137325286865234,-0.7179756164550781,-0.6854857802391052,8.7990029296875
1766001784085606100,10.881606201171875,4.694615364074707,-1.064287185668945,-0.6244401931762695,8.8177841796875
1766001784104387300,10.90038720703125,5.220883369445801,-1.2834882736206057,-0.5255191326141357,8.836565185546874
1766001784123168500,10.91916845703125,4.0783514976501465,-0.802952766418457,-0.5226283669471741,8.855346435546874
1766001784141950000,10.937949951171875,2.233764410018921,0.2845258712768554,-0.2410010695457458,8.8741279296875
1766001784160731100,10.956731201171875,3.3434207439422607,0.7867727279663086,0.0948073863983154,8.8929091796875
1766001784179512300,10.97551220703125,1.2050833702087402,0.4838123321533203,0.0458928644657135,8.911690185546874
1766001784198293500,10.99429345703125,0.4326140880584717,-1.223189353942871,1.0091958045959473,8.930471435546874
1766001784217075000,11.013074951171877,0.7132716178894043,-2.4261116981506348,1.6607578992843628,8.949252929687502
1766001784235856100,11.031856201171877,-3.0068631172180176,-1.9774179458618164,0.7480470538139343,8.968034179687502
1766001784254637300,11.05063720703125,-3.1672186851501465,-3.697152137756348,1.207408428192139,8.986815185546876
1766001784273418500,11.06941845703125,-4.336719512939453,-3.833185195922852,-0.158924862742424,9.005596435546876
1766001784292199700,11.08819970703125,-6.1471452713012695,-4.335714340209961,-1.4935274124145508,9.024377685546876
1766001784310981000,11.106981201171877,-10.953279495239258,-3.3101682662963867,-0.4376969039440155,9.043159179687501
1766001784329762300,11.12576220703125,-15.297208786010742,-2.909980773925781,0.4895471334457397,9.061940185546876
1766001784348543500,11.14454345703125,-16.837976455688477,3.1692562103271484,1.7007017135620115,9.080721435546875
1766001784367324700,11.16332470703125,-19.217952728271484,17.444026947021484,4.1462812423706055,9.099502685546875
1766001784386106000,11.182106201171877,-19.42950439453125,16.335323333740234,1.2956050634384155,9.118284179687501
1766001784414278000,11.21027783203125,-12.45767307281494,16.036903381347656,-1.43979012966156,9.146455810546875
1766001784433059000,11.22905908203125,-7.225525856018066,13.526249885559082,-0.619712233543396,9.165237060546875
1766001784451840300,11.24784033203125,5.123045921325684,-3.089785099029541,6.307765483856201,9.184018310546875
1766001784470621700,11.26662158203125,16.63887596130371,-12.135979652404783,2.68992280960083,9.202799560546875
