time,seconds_elapsed,z,y,x,t
1766001788517982200,15.313982177734376,1.087926745414734,-9.001419067382812,0.7722612619400024,13.25016015625
1766001788536763400,15.332763427734376,-0.5687834024429321,-9.886849403381348,3.5818145275115967,13.26894140625
1766001788555544600,15.351544677734376,0.2140275239944458,-9.523934364318848,-0.1952075362205505,13.28772265625
1766001788574326000,15.370325927734376,0.8950777053833008,-9.943140983581545,-1.0179991722106934,13.30650390625
1766001788593107200,15.389107177734376,1.494531512260437,-10.253479957580566,0.4096401333808899,13.32528515625
1766001788611888400,15.407888427734376,1.8734443187713623,-10.315406799316406,0.7858501672744751,13.34406640625
1766001788630669800,15.426669921875,2.055830955505371,-10.223073959350586,0.4627544283866882,13.362847900390625
1766001788649451000,15.445450927734376,2.2447023391723637,-10.031033515930176,0.3583580255508423,13.38162890625
1766001788668232200,15.464232177734376,2.306940793991089,-9.90652847290039,0.3083050847053528,13.40041015625
1766001788687013600,15.483013671875,2.3100759983062744,-9.718754768371582,0.5063221454620361,13.419191650390625
1766001788705794800,15.501794921875,2.6905105113983154,-9.654638290405272,0.6350005865097046,13.437972900390625
1766001788724576300,15.520576171875,3.108198642730713,-12.585536003112791,-0.1130489706993103,13.456754150390625
1766001788743357400,15.539357421875,-12.028419494628906,-8.591925621032715,0.066077172756195,13.475535400390624
1766001788762138600,15.558138671875,3.676774024963379,25.93707275390625,-4.893623352050781,13.494316650390624
1766001788780920000,15.576920166015626,-8.04763412475586,23.074901580810547,-3.8662924766540527,13.51309814453125
1766001788799701200,15.595701171875,0.2778949737548828,3.127678871154785,5.300123691558838,13.531879150390624
1766001788818482400,15.614482421875,3.344925880432129,37.55803680419922,6.552952289581299,13.550660400390624
1766001788837263600,15.633263671875,-22.666736602783203,15.488580703735352,-4.780002593994141,13.569441650390624
1766001788856045000,15.652045166015624,-20.227087020874023,-5.051114082336426,-0.6522454023361206,13.588223144531248
1766001788874826200,15.670826171875,-14.486197471618652,-11.571771621704102,-4.179072856903076,13.607004150390624
1766001788893607400,15.689607421875,-6.270206928253174,-6.063111305236816,-5.23349666595459,13.625785400390624
1766001788912388900,15.708388916015624,-0.6950678825378418,0.416666030883789,0.175299733877182,13.644566894531248
1766001788931170000,15.727170166015624,1.4561553001403809,-0.2244691848754882,5.531464576721191,13.663348144531248
1766001788949951200,15.745951171875,2.597820520401001,-3.5305233001708984,7.403357028961182,13.682129150390624
1766001788968732700,15.764732666015624,3.0711779594421387,-5.996214866638184,3.775160551071167,13.700910644531248
1766001788987513900,15.783513916015623,3.753263950347901,-6.492707252502441,1.9286673069000244,13.719691894531248
1766001789006295000,15.802294921875,3.000234603881836,-5.143388748168945,0.3027055263519287,13.738472900390624
1766001789025076200,15.821076171875,0.9636948108673096,-3.629776954650879,-1.3796885013580322,13.757254150390624
1766001789043857700,15.839857666015623,-0.5158462524414062,-0.7358121871948242,-1.1081724166870115,13.776035644531248
1766001789062638800,15.858638916015623,-1.3231520652770996,4.605083465576172,-1.023552656173706,13.794816894531248
1766001789081420000,15.877419921875,-2.21189284324646,8.393122673034668,-0.5392457246780396,13.813597900390624
1766001789100201500,15.896201416015623,-1.3567532300949097,5.311334609985352,-1.8599660396575928,13.832379394531248
1766001789118982700,15.914982666015623,4.282008647918701,-0.7735776901245117,-3.1449851989746094,13.851160644531248
1766001789137763800,15.933763916015623,10.181561470031738,-3.550642490386963,-0.5907400250434875,13.869941894531248
1766001789156545300,15.952545166015623,9.978815078735352,-1.5969295501708984,1.945642709732056,13.888723144531248
1766001789175326500,15.971326416015623,6.507211208343506,-0.7002162933349609,2.4482126235961914,13.907504394531248
1766001789194107600,15.990107666015623,4.723463535308838,-0.8828487396240234,-0.0143341422080993,13.926285644531248
1766001789212889000,16.00888916015625,5.5864434242248535,-1.020587921142578,-1.0538842678070068,13.945067138671876
1766001789231670300,16.027670166015625,5.452489852905273,-0.237309455871582,-0.6554713845252991,13.96384814453125
1766001789250451500,16.046451416015625,5.716727256774902,0.2620248794555664,0.184385597705841,13.982629394531248
1766001789269233000,16.06523291015625,6.335199356079102,-0.2218523025512695,0.6739559769630432,14.001410888671874
1766001789297404700,16.09340478515625,2.472674369812012,-0.2349786758422851,-1.9000550508499143,14.029582763671872
1766001789316186000,16.11218603515625,1.1356494426727295,0.7230081558227539,-1.0556045770645142,14.048364013671872
1766001789334967300,16.13096728515625,-2.1232903003692627,1.2736749649047852,0.6200326085090637,14.067145263671872
1766001789353748500,16.14974853515625,-3.418095588684082,0.1663904190063476,0.3641951382160187,14.085926513671872
1766001789372529700,16.16852978515625,-0.9254345893859864,-3.3742218017578125,0.3565616011619568,14.104707763671872
1766001789391311000,16.18731103515625,-2.447619915008545,-4.391304016113281,0.8524092435836792,14.123489013671872
1766001789410092300,16.20609228515625,-8.60562515258789,-4.503770351409912,0.6725703477859497,14.142270263671872
1766001789428873500,16.22487353515625,-10.534174919128418,-8.501416206359863,0.144240915775299,14.161051513671872
1766001789447655000,16.243655029296875,-13.448704719543455,-5.477243900299072,-1.440759539604187,14.179833007812498
1766001789466436000,16.26243603515625,-13.918380737304688,2.816102981567383,-0.9182146191596984,14.198614013671872
1766001789485217300,16.28121728515625,-17.684398651123047,26.27755355834961,4.553231716156006,14.217395263671872
1766001789503998500,16.29999853515625,-18.402877807617188,11.294883728027344,2.918811082839966,14.236176513671872
1766001789541561000,16.33756103515625,-6.117914199829102,17.370763778686523,-0.2472988367080688,14.273739013671872
1766001789569733000,16.365733154296876,1.240821123123169,-1.875404357910156,-0.9409931898117064,14.3019111328125
1766001789588514300,16.384514404296876,10.766708374023438,-16.381900787353516,-1.6822673082351685,14.3206923828125
1766001789607295700,16.403295654296876,16.694480895996094,-14.94077205657959,5.355024337768555,14.3394736328125
1766001789626077000,16.422076904296876,12.131890296936035,-8.675455093383789,2.190398931503296,14.3582548828125
1766001789644858000,16.440858154296876,6.907868385314941,-9.396600723266602,-3.6214773654937744,14.3770361328125
1766001789663639600,16.4596396484375,-0.9673984050750732,-7.8707275390625,-0.4561367034912109,14.395817626953122
1766001789691811300,16.487811279296874,-2.2777085304260254,-9.011611938476562,1.1845457553863523,14.423989257812497
1766001789710592500,16.506592529296874,-0.2955804467201233,-9.473980903625488,2.5693750381469727,14.442770507812497
1766001789729374000,16.5253740234375,1.5952993631362915,-10.114947319030762,1.9857268333435056,14.461552001953123
1766001789748155100,16.544155029296874,3.0528483390808105,-10.042566299438477,0.087902545928955,14.480333007812497
1766001789766936600,16.5629365234375,3.149733543395996,-10.062615394592283,-0.0357210636138916,14.499114501953123
1766001789785717800,16.5817177734375,2.980522632598877,-10.410270690917969,2.1303868293762207,14.517895751953123
1766001789804499000,16.6004990234375,3.191317558288574,-10.59382438659668,3.389988422393799,14.536677001953123
1766001789823280400,16.6192802734375,3.557566404342652,-10.821280479431152,3.112425804138184,14.555458251953123
1766001789842061600,16.6380615234375,3.537876844406128,-9.921314239501951,1.1979864835739136,14.574239501953123
1766001789860842800,16.6568427734375,0.2352406978607177,-11.848360061645508,-2.838791847229004,14.593020751953123
1766001789879624200,16.675624267578126,-15.224783897399902,7.970050811767578,-1.3537806272506714,14.611802246093749
1766001789898405400,16.6944052734375,10.83006477355957,44.69911193847656,1.972109317779541,14.630583251953123
1766001789917186600,16.7131865234375,-9.467774391174316,6.951362609863281,-1.178453803062439,14.649364501953123
1766001789935968000,16.731968017578126,-7.064250946044922,5.498211860656738,5.3587565422058105,14.668145996093749
1766001789954749200,16.750749267578126,-17.94339942932129,42.25090026855469,10.11298370361328,14.686927246093749
1766001789973530400,16.7695302734375,-17.34059715270996,0.8689174652099609,3.431152105331421,14.705708251953123
1766001789992311800,16.788311767578126,-14.041318893432615,-17.216144561767578,-6.596904754638672,14.724489746093749
1766001790011093000,16.807093017578126,-7.982879161834717,-15.50050163269043,-14.39136791229248,14.743270996093749
1766001790029874200,16.825874267578126,0.150761604309082,-0.4888219833374023,-4.1142401695251465,14.762052246093749
1766001790048655600,16.844655517578126,1.600343108177185,7.63748836517334,1.3267298936843872,14.780833496093749
1766001790067436800,16.863436767578126,2.1915283203125,2.474431037902832,6.886658191680908,14.799614746093749
1766001790095608600,16.891608642578124,2.75093936920166,-4.867781639099121,5.769760608673096,14.827786621093747
1766001790114390000,16.91039013671875,2.7579586505889893,-3.054293632507324,1.3264135122299194,14.846568115234373
1766001790133171200,16.929171142578124,3.5944712162017822,-1.0894660949707031,-1.8952581882476809,14.865349121093747
1766001790151952600,16.94795263671875,4.4295854568481445,0.7109413146972656,-6.403298854827881,14.884130615234373
1766001790180124400,16.97612451171875,4.15372896194458,0.8951139450073242,-2.1750364303588867,14.912302490234374
1766001790198905600,16.994905517578125,3.6598033905029297,0.1338653564453125,2.6798603534698486,14.931083496093748
1766001790217687000,17.01368701171875,2.544208526611328,0.0631465911865234,3.81666898727417,14.949864990234374
1766001790236468200,17.03246826171875,2.0220980644226074,-0.1661252975463867,1.392530083656311,14.968646240234374
1766001790255249700,17.051249755859374,0.8692147731781006,0.0861396789550781,-0.6922775506973267,14.987427734374997
1766001790274030800,17.07003076171875,-0.4896901845932007,-0.0659704208374023,-2.1777572631835938,15.006208740234374
1766001790292812000,17.08881201171875,-0.9696540236473083,-0.0300321578979492,-0.9070807099342346,15.024989990234374
1766001790311593500,17.107593505859374,-1.3567568063735962,-0.2405881881713867,0.5976067185401917,15.043771484374997
1766001790330374700,17.126374755859374,-1.0305395126342771,-0.1455116271972656,1.2571873664855957,15.062552734374997
1766001790349155800,17.14515576171875,-0.5521124601364136,0.1126585006713867,1.1815136671066284,15.081333740234374
1766001790367937300,17.163937255859373,-0.480045348405838,0.1786994934082031,0.0570648908615112,15.100115234374996
1766001790386718500,17.182718505859373,-0.0670763254165649,0.0738983154296875,-0.989759922027588,15.118896484374996
1766001790405500000,17.2015,0.4613860547542572,0.0325613021850585,-1.3573813438415527,15.137677978515622
1766001790424281000,17.220281005859373,0.7839243412017822,0.0624351501464843,-0.4560717940330505,15.156458984374996
1766001790443062300,17.239062255859373,0.8611490726470947,-0.0417938232421875,0.5037294626235962,15.175240234374996
1766001790461843700,17.25784375,0.86036217212677,-0.1953992843627929,0.8699867725372314,15.194021728515622
1766001790480625000,17.276625,0.5507774353027344,-0.2078161239624023,0.3763934373855591,15.212802978515622
1766001790499406000,17.295406005859373,0.366532027721405,0.2170877456665039,0.291241705417633,15.231583984374996
1766001790518187500,17.3141875,0.263478547334671,0.0782403945922851,-0.4699034690856933,15.250365478515622
1766001790536968700,17.33296875,0.1651059240102768,0.0447206497192382,-0.7374156713485718,15.269146728515622
1766001790555750000,17.35175,0.0587100312113761,0.1170511245727539,-0.4335269927978515,15.287927978515622
