time,seconds_elapsed,z,y,x,t
1766001786442653000,13.23865283203125,0.0282524954527616,0.5232820510864258,-1.2256238460540771,11.174830810546874
1766001786461434000,13.25743408203125,-0.1365282833576202,-0.7906880974769592,-0.7355575561523438,11.193612060546874
1766001786480215300,13.27621533203125,-0.130114197731018,-1.262733817100525,-0.0005345066892914,11.212393310546874
1766001786498996700,13.294996826171875,0.1597411334514618,-0.0303141642361879,0.1408806890249252,11.2311748046875
1766001786527168500,13.32316845703125,-0.0951421856880188,1.0469459295272827,0.4104247689247131,11.259346435546874
1766001786545949700,13.34194970703125,-0.1325576603412628,0.6840922236442566,0.4478402435779571,11.278127685546874
1766001786564731100,13.360731201171877,0.0232128612697124,0.0239000841975212,0.4551706314086914,11.296909179687502
1766001786583512300,13.37951220703125,0.1110246703028678,-0.2981783747673034,0.4628064334392547,11.315690185546876
1766001786602293500,13.39829345703125,0.0913242846727371,0.128052532672882,0.4657080471515655,11.334471435546876
1766001786621074700,13.41707470703125,-0.0305432397872209,0.6205622553825378,0.5103011727333069,11.353252685546876
1766001786639856000,13.435856201171877,-0.050854492932558,0.750981867313385,0.5565741658210754,11.372034179687502
1766001786658637300,13.45463720703125,0.0563522763550281,0.3878227770328522,0.6303361058235168,11.390815185546876
1766001786686809000,13.48280908203125,0.065515249967575,0.0519998632371425,0.8745293021202087,11.418987060546876
1766001786705590500,13.501590576171877,0.1350011229515075,0.1902080178260803,0.9649372696876526,11.437768554687501
1766001786724371700,13.520371826171877,0.1211039423942565,0.4675406217575073,1.085430383682251,11.456549804687501
1766001786743153000,13.53915283203125,0.0729983374476432,0.6425533890724182,1.227609157562256,11.475330810546875
1766001786761934300,13.557934326171877,0.1261435747146606,0.5405389666557312,1.3280963897705078,11.494112304687501
1766001786780715500,13.576715576171877,0.1861610412597656,0.3833940029144287,1.4204896688461304,11.512893554687501
1766001786799496700,13.59549658203125,0.1580612659454345,0.4066068828105926,1.5574761629104614,11.531674560546875
1766001786818278000,13.61427783203125,0.1311832070350647,0.469678670167923,1.5915318727493286,11.550455810546875
1766001786837059300,13.633059326171876,0.0783434063196182,0.4832704067230224,1.6020692586898804,11.569237304687501
1766001786855840500,13.651840576171876,-0.0424551032483577,0.5535198450088501,1.632917881011963,11.588018554687501
1766001786874621700,13.67062158203125,0.0343611426651477,0.6094139814376831,1.5289181470870972,11.606799560546875
1766001786893403100,13.689403076171876,0.0639880821108818,0.3653734922409057,1.4779109954833984,11.625581054687501
1766001786912184300,13.708184326171876,-0.0345138609409332,0.2097556889057159,1.5150209665298462,11.644362304687501
1766001786930965500,13.726965576171876,0.2539670467376709,0.0235946513712406,1.3068687915802002,11.663143554687501
1766001786949746700,13.74574658203125,0.4602866172790527,-0.3699549734592438,1.0733658075332642,11.681924560546875
1766001786968528100,13.764528076171874,0.4457785785198211,-0.41928231716156,0.5373319387435913,11.7007060546875
1766001786987309300,13.783309326171874,0.2861901521682739,-0.0784197673201561,-0.033673919737339,11.7194873046875
1766001787006090500,13.802090576171874,0.1960875988006591,0.0358119495213031,-0.8232166767120361,11.7382685546875
1766001787024872000,13.820871826171874,0.1511890292167663,0.072921983897686,-1.787924885749817,11.7570498046875
1766001787043653000,13.839653076171874,-0.3124573230743408,-0.3056614696979522,-2.753091096878052,11.7758310546875
1766001787062434300,13.858434326171874,-0.4008800089359283,-0.8697950839996338,-3.533165454864502,11.794612304687499
1766001787081215500,13.877215576171874,-0.3313941359519958,-1.5979459285736084,-4.519559383392334,11.813393554687499
1766001787099997000,13.895996826171874,-0.916297197341919,-3.093801021575928,-5.44456148147583,11.832174804687499
1766001787118778000,13.914778076171874,-1.40086567401886,-3.967643022537232,-4.92043924331665,11.850956054687499
1766001787137559300,13.933559326171874,-0.2142608165740966,-0.3997346460819244,-2.5209624767303467,11.869737304687499
1766001787156340700,13.9523408203125,0.4550942480564117,-0.203799769282341,-0.6159807443618774,11.888518798828125
1766001787175122000,13.971121826171874,0.3016144931316376,-1.7541745901107788,0.1923460513353347,11.907299804687499
1766001787193903000,13.989903076171874,0.3775144219398498,-2.3331217765808105,0.6553815603256226,11.926081054687499
1766001787212684500,14.0086845703125,0.4425715208053589,-1.1471277475357056,0.5883391499519348,11.944862548828125
1766001787231465700,14.0274658203125,0.1634063273668289,0.1353829056024551,0.2975675165653229,11.963643798828125
1766001787250247000,14.046246826171876,0.0662788301706314,0.3699549734592438,0.0237473677843809,11.9824248046875
1766001787269028400,14.0650283203125,0.1162170246243476,0.167300596833229,-0.1604283601045608,12.001206298828125
1766001787287809500,14.0838095703125,0.0369573198258876,0.3551415205001831,-0.2402989268302917,12.019987548828125
1766001787306590700,14.1025908203125,0.0056504993699491,0.746858537197113,-0.2108247131109237,12.038768798828125
1766001787334762800,14.1307626953125,-0.0484110340476036,1.1911100149154663,0.0138208158314228,12.066940673828125
1766001787353544000,14.1495439453125,-0.1550069451332092,1.5108976364135742,0.2412152290344238,12.085721923828125
1766001787372325000,14.1683251953125,-0.2834412455558777,1.7074434757232666,0.5139663815498352,12.104503173828125
1766001787391106600,14.1871064453125,-0.3764454126358032,1.8803181648254397,0.8227584958076477,12.123284423828125
1766001787409887700,14.2058876953125,-0.5977311730384827,2.2682173252105717,2.063119411468506,12.142065673828125
1766001787428669000,14.2246689453125,-0.6062833070755005,2.242866277694702,6.289387226104736,12.160846923828124
1766001787447450400,14.243450439453126,-0.18936807662248611,5.0768208503723145,2.49271011352539,12.17962841796875
1766001787466231600,14.2622314453125,0.2189950197935104,-0.7893136739730835,2.239812135696411,12.198409423828124
1766001787485012700,14.2810126953125,1.3661991357803345,-2.591517448425293,1.81067955493927,12.217190673828124
1766001787503794000,14.2997939453125,0.4937314689159393,-2.814941167831421,1.862144947052002,12.235971923828124
1766001787522575400,14.318575439453124,0.5413789302110672,3.011181592941284,0.1343138962984085,12.254753417968749
1766001787541356500,14.3373564453125,0.1305723488330841,0.9444733262062072,-0.9942587614059448,12.273534423828124
1766001787560137700,14.3561376953125,0.5890263915061951,-0.8988111615180969,-1.5547271966934204,12.292315673828124
1766001787578919200,14.374919189453124,0.1388190239667892,-0.8951459527015686,-1.7790672779083252,12.311097167968748
1766001787597700400,14.393700439453124,0.536644697189331,-3.85906195640564,-2.292041063308716,12.329878417968748
1766001787616481500,14.4124814453125,0.1821904182434082,-3.2190282344818115,-2.496222496032715,12.348659423828124
1766001787635262700,14.4312626953125,-0.8414662480354309,-1.1950806379318235,-2.35709810256958,12.367440673828124
1766001787654044200,14.450044189453124,-0.3906480371952057,0.4301251769065857,-1.9357541799545288,12.386222167968748
1766001787672825300,14.468825439453123,0.0609337612986564,1.4246129989624023,-1.5570179224014282,12.405003417968748
1766001787691606500,14.4876064453125,-0.2609919905662536,1.1368956565856934,-1.14422607421875,12.423784423828124
1766001787710388000,14.506387939453123,-0.2449567764997482,0.7720566987991333,-0.816649854183197,12.442565917968748
1766001787729169200,14.525169189453123,-0.1073594838380813,1.5588505268096924,-0.7201332449913025,12.461347167968748
1766001787747950300,14.543950439453123,0.1056796088814735,1.4786745309829712,-0.8969785571098328,12.480128417968748
1766001787766731500,14.5627314453125,-0.1740964651107788,0.2952767610549927,-0.4458549320697784,12.498909423828124
1766001787785513000,14.581512939453123,-0.1696676909923553,-0.900338351726532,0.0594829581677913,12.517690917968748
1766001787804294100,14.600294189453123,0.2603811025619507,-1.2259292602539062,0.2080758213996887,12.536472167968748
1766001787823075300,14.619075439453123,0.2087630331516266,-0.483423113822937,0.4215730428695678,12.555253417968748
1766001787841856800,14.637856689453123,-0.0436768308281898,0.502970814704895,0.4832704067230224,12.574034667968748
1766001787860638000,14.656637939453123,-0.1467602699995041,0.737695574760437,0.4499782621860504,12.592815917968748
1766001787879419100,14.675419189453123,0.0140498895198106,0.4681515097618103,0.3446041047573089,12.611597167968748
1766001787898200300,14.694200439453123,0.037720900028944,0.152945265173912,0.2506836354732513,12.630378417968748
1766001787916981800,14.712981689453123,0.0015271619195118,0.2551124095916748,0.1662315726280212,12.649159667968748
1766001787935763000,14.731762939453125,-0.0432186834514141,0.3606393039226532,0.1111010313034057,12.66794091796875
1766001787973325600,14.76932568359375,0.0247400235384702,0.1414915472269058,0.1077412739396095,12.705503662109376
1766001787992106800,14.788106689453125,0.0204639695584774,-0.0608574040234088,0.1721875071525573,12.72428466796875
1766001788010888000,14.806887939453125,0.1053741723299026,-0.1831830739974975,0.3198640644550323,12.74306591796875
1766001788029669000,14.825669189453125,0.1345429718494415,-0.1308014243841171,0.5141190886497498,12.76184716796875
1766001788048450600,14.844450439453125,0.1180496215820312,0.0106137758120894,0.816038966178894,12.78062841796875
1766001788067231700,14.863231689453125,0.1444695144891739,0.2479347437620163,1.196455001831055,12.79940966796875
1766001788086013000,14.882012939453125,0.1615737378597259,0.2971093654632568,1.4794381856918335,12.81819091796875
1766001788104794400,14.90079443359375,0.1821904182434082,0.7662535309791565,1.6882011890411377,12.836972412109375
1766001788123575600,14.919575439453125,0.1821904182434082,1.0907753705978394,1.955454468727112,12.85575341796875
1766001788142356700,14.938356689453125,0.1698204129934311,0.9241620302200316,2.1319944858551025,12.87453466796875
1766001788161138200,14.95713818359375,0.2400698512792587,0.4560869038105011,2.1967461109161377,12.893316162109375
1766001788179919400,14.97591943359375,0.2299905866384506,0.308563083410263,2.071824312210083,12.912097412109375
1766001788198700500,14.994700439453124,0.1307250559329986,0.2230419963598251,2.082667112350464,12.93087841796875
1766001788217482000,15.01348193359375,-0.0123700117692351,0.2305250912904739,1.975765824317932,12.949659912109375
1766001788236263200,15.03226318359375,0.1543960720300674,0.0608574040234088,1.7167590856552124,12.968441162109375
1766001788255044400,15.05104443359375,0.5920807123184204,-0.3580431044101715,1.3465750217437744,12.987222412109375
1766001788273825800,15.06982568359375,0.6594285368919373,-0.5785652995109558,1.0208313465118408,13.006003662109375
1766001788292607000,15.08860693359375,0.4889972507953644,-0.7271581888198853,0.386601060628891,13.024784912109375
1766001788311388200,15.10738818359375,0.2843575477600097,-0.4657080471515655,-0.3878227770328522,13.043566162109375
1766001788330169300,15.12616943359375,-0.0728456228971481,-0.1834885030984878,-1.263192057609558,13.062347412109375
1766001788348950800,15.14495068359375,-0.4740310609340668,0.0078648841008543,-2.148029565811157,13.081128662109375
1766001788367732000,15.16373193359375,-0.527481734752655,-0.4125627875328064,-2.9988114833831787,13.099909912109375
1766001788386513200,15.18251318359375,-0.4731147587299347,-0.9412662386894226,-3.9448883533477774,13.118691162109375
1766001788405294600,15.201294677734374,-0.6270527243614197,-1.8777220249176023,-5.030853271484375,13.137472656249999
1766001788424075800,15.22007568359375,-1.2831214666366575,-3.128009557723999,-5.397372245788574,13.156253662109375
1766001788442857000,15.23885693359375,-1.1786636114120483,-1.6597959995269775,-3.6716790199279785,13.175034912109375
1766001788461638400,15.257638427734374,0.3707949221134186,1.1391865015029907,-1.3235149383544922,13.193816406249999
