time,seconds_elapsed,z,y,x,t
1766001780385703200,7.181703125,-1.1562143564224243,-0.7657953500747681,0.7836631536483765,5.117881103515625
1766001780404484400,7.200484375,-0.5558869242668152,2.047084331512451,-0.6671407222747803,5.136662353515625
1766001780423265500,7.219265625,0.3268126547336578,0.0011453714687377,-1.05733060836792,5.155443603515625
1766001780442046700,7.238046630859375,0.3434587121009826,0.0376445427536964,-1.6399428844451904,5.174224609375001
1766001780460828000,7.256827880859375,0.2557996213436126,0.0069485870189964,-1.701945662498474,5.193005859375001
1766001780479609300,7.275609375,-0.1374445706605911,-1.0335068702697754,-2.102978467941284,5.211787353515625
1766001780498390500,7.294390625,-0.8750637769699097,-0.2650389671325683,-1.950873017311096,5.230568603515625
1766001780517171700,7.313171630859375,-0.6944005489349365,0.4250855147838592,-1.5822161436080933,5.249349609375001
1766001780535953000,7.331952880859375,-0.0432186834514141,1.282586932182312,-1.1827105283737185,5.268130859375001
1766001780554734000,7.350734130859375,-0.0080939587205648,1.4137701988220217,-0.9107230305671692,5.286912109375001
1766001780573515300,7.369515380859375,-0.2628245651721954,1.0764200687408447,-0.8099303245544434,5.305693359375001
1766001780592296400,7.38829638671875,-0.167529672384262,0.8568142056465149,-0.677678108215332,5.324474365234375
1766001780611077600,7.40707763671875,-0.0345138609409332,0.4672352075576782,-0.4811323583126068,5.343255615234375
1766001780629859000,7.425859130859375,0.0238237269222736,0.1544724255800247,-0.3641517758369446,5.3620371093750006
1766001780648640300,7.44464013671875,0.0423023849725723,-0.235564723610878,-0.285502940416336,5.380818115234375
1766001780667421400,7.46342138671875,0.0001527161948615,-0.451047271490097,-0.2474765926599502,5.399599365234375
1766001780686202600,7.48220263671875,-0.0215329825878143,-0.414089947938919,-0.2882518172264099,5.4183806152343745
1766001780704983800,7.50098388671875,-0.0448985621333122,-0.2001345753669738,-0.2943604588508606,5.4371618652343745
1766001780723765000,7.519764892578125,-0.0503963455557823,0.0915533602237701,-0.2787834107875824,5.45594287109375
1766001780742546200,7.538546142578125,-0.0467311553657054,0.3103956580162048,-0.2876409590244293,5.47472412109375
1766001780761327600,7.55732763671875,-0.0642935186624527,0.4099666178226471,-0.2691622972488403,5.493505615234374
1766001780789499400,7.58549951171875,-0.0757472291588783,0.3308596312999725,-0.2375500351190567,5.521677490234374
1766001780808280600,7.604280517578125,-0.0711657479405403,0.1723402291536331,-0.2421315312385559,5.54045849609375
1766001780827061800,7.623061767578125,-0.0705548822879791,0.0017562361899763,-0.2050214856863021,5.55923974609375
1766001780845843000,7.641843017578125,-0.065515249967575,-0.1327867358922958,-0.1569158881902694,5.57802099609375
1766001780864624000,7.6606240234375,-0.0552832633256912,-0.2645808160305023,-0.1141553521156311,5.596802001953126
1766001780883405300,7.6794052734375,-0.0500909127295017,-0.325514554977417,-0.0797942131757736,5.615583251953126
1766001780902186500,7.6981865234375,-0.0510072074830532,-0.3386481702327728,-0.0723111182451248,5.634364501953126
1766001780920968000,7.716968017578125,-0.0624609254300594,-0.3302487730979919,0.0023671009112149,5.65314599609375
1766001780939749000,7.7357490234375,-0.0380263328552246,-0.2682459950447082,0.1573740392923355,5.671927001953126
1766001780958530300,7.7545302734375,0.0006108647794462,-0.1324812918901443,0.3105483949184418,5.690708251953126
1766001780977311500,7.7733115234375,0.0062613640911877,-0.0266489759087562,0.4915170669555664,5.709489501953126
1766001780996092700,7.7920927734375,0.0474947355687618,0.0312304627150297,0.7964913249015808,5.728270751953126
1766001781014873900,7.810873779296875,0.1519526094198227,0.008475748822093,1.1489602327346802,5.7470517578125
1766001781033655300,7.8296552734375,0.249690979719162,0.0709366723895073,1.489364743232727,5.765833251953126
1766001781052436500,7.8484365234375,0.3376555144786834,0.3155880272388458,1.72378408908844,5.784614501953126
1766001781071217700,7.8672177734375,0.378888875246048,0.6689732670783997,1.7903683185577393,5.803395751953126
1766001781089998800,7.885998779296875,0.2144135385751724,1.0525963306427002,1.8033491373062132,5.8221767578125
1766001781108780000,7.904780029296875,0.0279470644891262,1.2176826000213623,1.9873721599578855,5.8409580078125
1766001781127561500,7.9235615234375,0.1191186308860778,1.040684461593628,2.0345613956451416,5.8597395019531255
1766001781146342700,7.9423427734375,0.1996000707149505,0.6906589865684509,1.865504622459412,5.8785207519531255
1766001781165123800,7.961123779296875,0.2229656428098678,0.4122573733329773,1.8685590028762815,5.8973017578124995
1766001781183905000,7.979905029296875,0.3979783952236175,0.1639408320188522,1.7934225797653198,5.9160830078124995
1766001781202686200,7.998686279296875,0.3668242990970611,0.2451858520507812,1.5858813524246216,5.9348642578124995
1766001781221467400,8.01746728515625,0.3572031855583191,0.1863901168107986,1.247767686843872,5.953645263671875
1766001781240248600,8.03624853515625,0.3309359848499298,-0.3129918277263641,0.6683624386787415,5.972426513671875
1766001781259030000,8.055030029296875,0.2246455252170562,-0.9617302417755128,-0.0794887766242027,5.991208007812499
1766001781277811200,8.073811279296875,0.2101374864578247,-1.0246492624282837,-0.9890664219856262,6.009989257812499
1766001781296592400,8.09259228515625,-0.0213802680373191,-0.9635628461837769,-2.010432243347168,6.028770263671875
1766001781315373600,8.11137353515625,-0.1609628647565841,-1.1733949184417725,-2.881830930709839,6.047551513671875
1766001781334154800,8.13015478515625,-0.2157879769802093,-1.3248893022537231,-3.762392520904541,6.066332763671875
1766001781352936000,8.14893603515625,-0.6001746654510498,-1.9314780235290527,-4.824686527252197,6.085114013671875
1766001781371717400,8.16771728515625,-0.4079813212156296,-3.494833707809448,-5.159287452697754,6.103895263671875
1766001781390498600,8.18649853515625,-0.911562979221344,-2.476063966751098,-3.208949089050293,6.122676513671875
1766001781409279700,8.20527978515625,0.6313287615776062,-0.8584941029548645,-0.8771254420280457,6.141457763671875
1766001781437451500,8.233451416015624,0.1562286615371704,0.061010118573904,0.0055741411633789,6.169629394531249
1766001781456233000,8.25223291015625,0.2026543915271759,-0.0516944304108619,0.1628718227148056,6.188410888671875
1766001781475014100,8.27101416015625,0.2695440948009491,0.1837939471006393,0.0907897800207138,6.207192138671875
1766001781493795300,8.28979541015625,0.1145371496677398,0.4780780375003814,-0.1109483167529106,6.225973388671875
1766001781512576500,8.308576416015624,0.1188132017850875,0.3355938494205475,-0.1984546929597854,6.244754394531249
1766001781531357700,8.327357666015626,0.0974329337477684,0.2862665057182312,-0.1789070218801498,6.263535644531251
1766001781550139000,8.346138916015626,0.0288633611053228,0.3548360764980316,-0.0636062920093536,6.282316894531251
1766001781568920300,8.36492041015625,0.0047342018224298,0.2531270980834961,0.1498909443616867,6.301098388671875
1766001781587701500,8.383701416015626,0.0299323741346597,0.0258853957056999,0.4518108665943146,6.319879394531251
1766001781606482700,8.402482666015626,-0.0073303775861859,0.1669951528310775,0.7922152876853943,6.3386606445312506
1766001781625263900,8.421263916015626,-0.107054054737091,0.5741365551948547,1.0881792306900024,6.3574418945312505
1766001781644045300,8.44004541015625,-0.2330449074506759,0.9898300170898438,1.377271056175232,6.376223388671875
1766001781662826500,8.458826416015626,-0.3703367710113525,1.3503929376602173,2.065104722976685,6.3950043945312505
1766001781681607700,8.477607666015626,-0.5189296007156372,2.2124757766723637,5.448532104492188,6.41378564453125
1766001781700388900,8.496388916015626,0.17745622992515567,3.379380226135254,3.750633478164673,6.43256689453125
1766001781719170000,8.515170166015626,0.9654718041419984,-0.0744491443037986,2.2132394313812256,6.45134814453125
1766001781737951500,8.533951416015626,0.7252492308616638,-1.8647410869598389,1.95133113861084,6.47012939453125
1766001781756732700,8.552732666015626,0.7252492308616638,-1.7647119760513306,1.46951162815094,6.48891064453125
1766001781775513900,8.571513916015626,0.0167987812310457,2.444909811019897,0.2178496569395065,6.50769189453125
1766001781794295000,8.590294921875,-0.8133664727210999,2.6677229404449463,-0.4037052690982818,6.526472900390624
1766001781813076200,8.609076171875,0.0167987812310457,0.1245400533080101,-1.2653300762176514,6.545254150390624
1766001781831857400,8.627857421875,0.3353647589683532,-0.9359211921691896,-1.5657228231430054,6.564035400390624
1766001781850638800,8.646638916015625,0.4673115611076355,-3.1820709705352783,-1.8253402709960935,6.58281689453125
1766001781869420000,8.665419921875,0.0630717873573303,-3.237201452255249,-1.900018572807312,6.601597900390624
1766001781888201200,8.684201171875,-0.4532616734504699,-1.9015456438064573,-1.6840778589248655,6.620379150390624
1766001781906982400,8.702982421875,-0.3190241456031799,0.0335212051868438,-1.397429585456848,6.639160400390624
1766001781935154200,8.731154296875,-0.1553123742341995,1.201341986656189,-0.8291725516319275,6.667332275390624
1766001781953935600,8.749935546875,-0.2493855506181717,0.7074577808380127,-0.4944186806678772,6.686113525390624
1766001781972716800,8.768716796875,-0.0800232887268066,0.3891972303390503,-0.3380373120307922,6.704894775390624
1766001781991498000,8.787498046875,0.085826501250267,0.2396880686283111,-0.2900844216346741,6.723676025390624
1766001782010279200,8.806279052734375,0.0931568816304206,0.4501309990882873,-0.4504364132881164,6.74245703125
1766001782029060400,8.825060302734375,0.1001818254590034,0.6471349000930786,-0.6373610496520996,6.76123828125
1766001782047841800,8.843841796875,-0.1701258420944214,0.3707185685634613,-0.8914808034896851,6.780019775390624
1766001782066623000,8.862623046875,-0.1968511790037155,-0.3557523787021637,-1.0727548599243164,6.798801025390624
1766001782085404200,8.881404052734375,-0.0390953458845615,-1.0445023775100708,-1.0542762279510498,6.81758203125
1766001782104185300,8.900185302734375,0.0142026059329509,-1.0116684436798096,-0.8284090161323547,6.83636328125
1766001782122966500,8.918966552734375,-0.0325285494327545,-0.2045633494853973,-0.4960985481739044,6.85514453125
1766001782141747700,8.937747802734375,-0.0583375878632068,0.8099303245544434,-0.2500727772712707,6.87392578125
1766001782160529200,8.956529052734375,-0.0126754445955157,1.1698824167251587,-0.0709366723895073,6.89270703125
1766001782179310300,8.975310302734375,-0.0099265528842806,0.6784417033195496,-0.0229837875813245,6.91148828125
1766001782207482000,9.003482177734375,-0.0085521070286631,-0.2161697745323181,-0.1237764731049537,6.9396601562499995
1766001782226263300,9.02226318359375,-0.0303905233740806,-0.3615556061267853,-0.1127809062600135,6.958441162109375
1766001782254435300,9.050435302734376,-0.0230601448565721,-0.12713623046875,-0.0229837875813245,6.986613281250001
1766001782282607000,9.078607177734376,-0.016951497644186,-0.0209984760731458,0.0642171576619148,7.014785156250001
1766001782301388300,9.09738818359375,0.0233655776828527,-0.0321467593312263,0.1074358448386192,7.033566162109375
1766001782320169500,9.11616943359375,0.0482583157718181,-0.0260381121188402,0.1414915472269058,7.052347412109375
1766001782338950700,9.13495068359375,0.0507017783820629,-0.0332157723605632,0.1630245447158813,7.071128662109375
1766001782357732000,9.153732177734376,0.0410806573927402,0.0891098976135253,0.2479347437620163,7.089910156250001
1766001782376513300,9.17251318359375,-0.003359756199643,0.2054796367883682,0.3835467100143432,7.108691162109375
1766001782395294500,9.19129443359375,0.015882484614849,0.0301614478230476,0.5519927144050598,7.127472412109375
1766001782414075600,9.21007568359375,0.0783434063196182,0.0655916035175323,0.7602975964546204,7.146253662109375
