time,seconds_elapsed,z,y,x,t
1766001783484606200,10.280606201171874,-3.049530506134033,3.769369125366211,0.6739755272865295,8.2167841796875
1766001783503387400,10.299387451171874,-3.0884549617767334,7.576820373535156,0.243297666311264,8.2355654296875
1766001783522168800,10.3181689453125,0.4595987796783447,5.364546775817871,-3.068783760070801,8.254346923828125
1766001783540950000,10.336949951171874,5.897290229797363,-0.7967100143432617,-5.8414411544799805,8.273127929687499
1766001783559731200,10.355731201171874,7.472705364227295,-1.5214643478393557,-0.7312238216400146,8.291909179687499
1766001783578512400,10.374512451171874,3.612717628479004,0.0860233306884765,2.368579864501953,8.310690429687499
1766001783597293600,10.39329345703125,-0.1222884654998779,-0.2495965957641601,1.2260229587554932,8.329471435546875
1766001783616075000,10.412074951171874,-1.5360928773880005,-0.3260145187377929,-0.7963925004005432,8.348252929687499
1766001783634856200,10.430856201171874,-1.565396428108215,-0.8398332595825195,-0.6193451285362244,8.367034179687499
1766001783653637400,10.449637451171874,-1.1997945308685305,-0.7755193710327148,0.58841872215271,8.385815429687499
1766001783672418800,10.468418701171874,-1.245688796043396,-0.1460819244384765,1.3187050819396973,8.404596679687499
1766001783691200000,10.487199951171876,-1.4324370622634888,0.8165788650512695,0.0420965552330017,8.4233779296875
1766001783709981200,10.505981201171876,-0.8208043575286865,1.1409664154052734,-0.6017260551452637,8.4421591796875
1766001783728762400,10.524762451171876,0.0763918161392211,0.0667276382446289,-0.5161343216896057,8.4609404296875
1766001783747543600,10.54354345703125,1.1767094135284424,-0.4073953628540039,0.4009327292442322,8.479721435546875
1766001783766325000,10.562324951171876,2.2617225646972656,-0.1077413558959961,0.6697930097579956,8.4985029296875
1766001783785106200,10.581106201171876,2.243804693222046,0.1827363967895507,0.2503833174705505,8.5172841796875
1766001783803887400,10.599887451171876,1.673345923423767,0.0712652206420898,0.4517428278923034,8.5360654296875
1766001783822668500,10.61866845703125,1.3999110460281372,-0.2323255538940429,0.1579163074493408,8.554846435546875
1766001783841450000,10.637449951171876,1.196441411972046,-0.1489686965942382,0.5919230580329895,8.5736279296875
1766001783860231200,10.656231201171876,0.6526163220405579,0.2073192596435547,0.7683918476104736,8.5924091796875
1766001783879012400,10.675012451171876,0.0186493396759033,0.7341299057006836,0.5381383895874023,8.6111904296875
1766001783897793500,10.69379345703125,-0.104083776473999,0.4513893127441406,-0.4071956276893616,8.629971435546874
1766001783916574700,10.71257470703125,0.0894622802734375,-0.1595544815063476,-0.9058290123939514,8.648752685546874
1766001783935356200,10.731356201171875,0.3031466007232666,-0.2627696990966797,-0.3318817019462585,8.6675341796875
1766001783954137300,10.750137451171875,0.4434261322021484,-0.0744171142578125,0.0076510906219482,8.6863154296875
1766001783972918500,10.76891845703125,0.5630998611450195,0.0951766967773437,-0.5071171522140503,8.705096435546874
1766001783991700000,10.787699951171875,0.7672250270843506,0.3730249404907226,-0.1980152726173401,8.7238779296875
1766001784010481200,10.806481201171875,1.1406333446502686,0.2672061920166015,-0.0785709023475647,8.7426591796875
1766001784029262300,10.825262451171875,1.7459895610809326,0.0169496536254882,-0.3269626498222351,8.7614404296875
1766001784048043500,10.84404345703125,2.4363884925842285,-0.3006153106689453,-0.623471200466156,8.780221435546874
1766001784066825000,10.862824951171875,3.4137325286865234,-0.7179756164550781,-0.6854857802391052,8.7990029296875
1766001784085606100,10.881606201171875,4.694615364074707,-1.064287185668945,-0.6244401931762695,8.8177841796875
1766001784104387300,10.90038720703125,5.220883369445801,-1.2834882736206057,-0.5255191326141357,8.836565185546874
1766001784123168500,10.91916845703125,4.0783514976501465,-0.802952766418457,-0.5226283669471741,8.855346435546874
1766001784141950000,10.937949951171875,2.233764410018921,0.2845258712768554,-0.2410010695457458,8.8741279296875
1766001784160731100,10.956731201171875,3.3434207439422607,0.7867727279663086,0.0948073863983154,8.8929091796875
1766001784179512300,10.97551220703125,1.2050833702087402,0.4838123321533203,0.0458928644657135,8.911690185546874
1766001784198293500,10.99429345703125,0.4326140880584717,-1.223189353942871,1.0091958045959473,8.930471435546874
1766001784217075000,11.013074951171877,0.7132716178894043,-2.4261116981506348,1.6607578992843628,8.949252929687502
1766001784235856100,11.031856201171877,-3.0068631172180176,-1.9774179458618164,0.7480470538139343,8.968034179687502
1766001784254637300,11.05063720703125,-3.1672186851501465,-3.697152137756348,1.207408428192139,8.986815185546876
1766001784273418500,11.06941845703125,-4.336719512939453,-3.833185195922852,-0.158924862742424,9.005596435546876
1766001784292199700,11.08819970703125,-6.1471452713012695,-4.335714340209961,-1.4935274124145508,9.024377685546876
1766001784310981000,11.106981201171877,-10.953279495239258,-3.3101682662963867,-0.4376969039440155,9.043159179687501
1766001784329762300,11.12576220703125,-15.297208786010742,-2.909980773925781,0.4895471334457397,9.061940185546876
1766001784348543500,11.14454345703125,-16.837976455688477,3.1692562103271484,1.7007017135620115,9.080721435546875
1766001784367324700,11.16332470703125,-19.217952728271484,9.603079795837402,4.1462812423706055,9.099502685546875
1766001784386106000,11.182106201171877,-19.42950439453125,16.335323333740234,1.2956050634384155,9.118284179687501
1766001784414278000,11.21027783203125,-12.45767307281494,16.036903381347656,-1.43979012966156,9.146455810546875
1766001784433059000,11.22905908203125,-7.225525856018066,13.526249885559082,-0.619712233543396,9.165237060546875
1766001784451840300,11.24784033203125,5.123045921325684,-3.089785099029541,6.307765483856201,9.184018310546875
1766001784470621700,11.26662158203125,16.63887596130371,-12.135979652404783,2.68992280960083,9.202799560546875
1766001784489403000,11.28540283203125,13.614870071411133,-15.49139404296875,3.1641790866851807,9.221580810546875
1766001784508184000,11.30418408203125,13.75943374633789,-9.72738265991211,0.555117130279541,9.240362060546875
1766001784526965200,11.32296533203125,5.542076587677002,-9.021461486816406,0.8348386883735657,9.259143310546875
1766001784545746700,11.34174658203125,-0.086724579334259,-10.608590126037598,3.106802463531494,9.277924560546875
1766001784564527900,11.36052783203125,-1.9907420873641968,-9.08363914489746,2.286355495452881,9.296705810546875
1766001784583309000,11.37930908203125,-1.6032114028930664,-9.513623237609863,-1.1458910703659058,9.315487060546875
1766001784602090200,11.39809033203125,0.0016563534736633,-9.83934211730957,-0.6438002586364746,9.334268310546875
1766001784620871700,11.41687158203125,1.090021014213562,-9.520605087280272,1.070415735244751,9.353049560546875
1766001784639652900,11.43565283203125,1.7458865642547607,-10.119744300842283,0.8088456392288208,9.371830810546875
1766001784658434000,11.45443408203125,1.8360154628753664,-10.187767028808594,0.2895768880844116,9.390612060546875
1766001784677215500,11.473215576171874,1.9822242259979248,-9.88442325592041,0.397153377532959,9.4093935546875
1766001784695996700,11.49199658203125,2.521690368652344,-9.72968864440918,0.5727372169494629,9.428174560546875
1766001784714777900,11.51077783203125,3.0869140625,-9.640228271484377,1.002602219581604,9.446955810546875
1766001784733559000,11.52955908203125,3.49258804321289,-10.03019905090332,1.2324992418289185,9.465737060546875
1766001784752340500,11.548340576171874,3.86836314201355,-9.74415397644043,0.5112677812576294,9.484518554687499
1766001784771121700,11.56712158203125,5.66845703125,-9.466233253479004,-0.1704891920089721,9.503299560546875
1766001784789902800,11.58590283203125,8.366449356079102,-13.479103088378906,1.4679136276245115,9.522080810546875
1766001784808684300,11.604684326171874,-7.466348648071289,16.353168487548828,-2.468679666519165,9.540862304687499
1766001784827465500,11.623465576171874,-2.319614887237549,2.7546815872192383,4.3848795890808105,9.559643554687499
1766001784846246700,11.64224658203125,-3.0391950607299805,2.7546815872192383,-4.557055950164795,9.578424560546875
1766001784865027800,11.66102783203125,0.6059308052062988,1.3550119400024414,1.4893687963485718,9.597205810546875
1766001784883809000,11.67980908203125,-20.9775333404541,-0.0446577072143554,3.162240505218506,9.615987060546875
1766001784902590500,11.698590576171876,-25.45748519897461,-0.0446577072143554,-0.8009561896324158,9.6347685546875
1766001784921371600,11.71737158203125,-17.00894546508789,-13.73916244506836,-0.3164784014225006,9.653549560546875
1766001784940152800,11.73615283203125,-9.339604377746582,-12.282523155212402,-2.7719640731811523,9.672330810546875
1766001784958934000,11.75493408203125,-2.1521453857421875,-0.1539220809936523,-2.13295841217041,9.691112060546875
1766001784977715200,11.773715087890626,0.2552218437194824,7.632287979125977,0.8951547145843506,9.70989306640625
1766001784996496600,11.79249658203125,2.291051149368286,2.224576950073242,5.516600131988525,9.728674560546875
1766001785015277800,11.81127783203125,3.686004161834717,-4.983905792236328,3.944929599761963,9.747455810546874
1766001785034059000,11.83005908203125,4.820780754089356,-8.228918075561523,0.3342134952545166,9.766237060546874
1766001785052840200,11.848840087890624,5.289122581481934,-7.083850860595703,-0.5176563262939453,9.785018066406248
1766001785071621600,11.86762158203125,4.4723663330078125,-4.441031455993652,-0.2723287940025329,9.803799560546874
1766001785090402800,11.88640283203125,1.7738206386566162,-2.793308734893799,-0.3154957890510559,9.822580810546874
1766001785109184000,11.90518408203125,-1.3813080787658691,-0.5823507308959961,-0.1816843748092651,9.841362060546874
1766001785127965200,11.923965087890624,-3.086247444152832,4.051684379577637,-2.1938748359680176,9.860143066406248
1766001785146746600,11.94274658203125,-3.071816921234131,8.434562683105469,-4.490146160125732,9.878924560546874
1766001785174918400,11.97091845703125,4.356438636779785,-0.9192934036254884,-1.5172030925750732,9.907096435546874
1766001785193699600,11.989699462890623,9.114011764526367,-5.330992698669434,1.3421809673309326,9.925877441406248
1766001785212480800,12.008480712890623,8.301677703857422,-2.633975982666016,2.9538662433624268,9.944658691406248
1766001785231262200,12.02726220703125,4.129074096679688,0.8185586929321289,1.9698259830474851,9.963440185546874
1766001785250043400,12.04604345703125,0.7913617491722107,0.7138004302978516,0.2745433449745178,9.982221435546874
1766001785268824600,12.064824462890623,-0.6547842025756836,-0.1986522674560547,-1.4605019092559814,10.001002441406248
1766001785287605800,12.083605712890623,-0.2256251573562622,0.1494178771972656,-1.3271496295928955,10.019783691406248
1766001785306387200,12.10238720703125,0.1633791923522949,0.3818235397338867,0.2447121739387512,10.038565185546874
1766001785325168400,12.12116845703125,1.080169916152954,0.9750213623046876,0.8441343903541565,10.057346435546874
1766001785343949600,12.139949462890623,2.3619184494018555,1.4022417068481443,0.5417189002037048,10.076127441406248
1766001785362730800,12.158730712890623,3.419286727905273,0.2227849960327148,-0.6394579410552979,10.094908691406248
1766001785381512200,12.17751220703125,4.183519840240479,0.0468435287475585,-0.8760087490081787,10.113690185546874
1766001785409684000,12.20568408203125,5.658405303955078,-0.139404296875,0.0835066437721252,10.141862060546876
1766001785428465200,12.224465087890623,5.680068492889404,-0.0326423645019531,-0.2537259459495544,10.160643066406248
1766001785447246300,12.243246337890625,5.381131172180176,0.3325414657592773,-1.061535358428955,10.17942431640625
1766001785466027800,12.26202783203125,4.400040626525879,-0.0101089477539062,-1.8997360467910769,10.198205810546876
1766001785484809000,12.28080908203125,2.605489015579224,-0.3946552276611328,-2.069513320922852,10.216987060546876
