time,seconds_elapsed,z,y,x,t
1766001781390498600,8.18649853515625,-0.911562979221344,-2.476063966751098,-3.208949089050293,6.122676513671875
1766001781409279700,8.20527978515625,0.6313287615776062,-0.8584941029548645,-0.8771254420280457,6.141457763671875
1766001781437451500,8.233451416015624,0.1562286615371704,0.061010118573904,0.0055741411633789,6.169629394531249
1766001781456233000,8.25223291015625,0.2026543915271759,-0.0516944304108619,0.1628718227148056,6.188410888671875
1766001781475014100,8.27101416015625,0.2695440948009491,0.1837939471006393,0.0907897800207138,6.207192138671875
1766001781493795300,8.28979541015625,0.1145371496677398,0.4780780375003814,-0.1109483167529106,6.225973388671875
1766001781512576500,8.308576416015624,0.1188132017850875,0.3355938494205475,-0.1984546929597854,6.244754394531249
1766001781531357700,8.327357666015626,0.0974329337477684,0.2862665057182312,-0.1789070218801498,6.263535644531251
1766001781550139000,8.346138916015626,0.0288633611053228,0.3548360764980316,-0.0636062920093536,6.282316894531251
1766001781568920300,8.36492041015625,0.0047342018224298,0.2531270980834961,0.1498909443616867,6.301098388671875
1766001781587701500,8.383701416015626,0.0299323741346597,0.0258853957056999,0.4518108665943146,6.319879394531251
1766001781606482700,8.402482666015626,-0.0073303775861859,0.1669951528310775,0.7922152876853943,6.3386606445312506
1766001781625263900,8.421263916015626,-0.107054054737091,0.5741365551948547,1.0881792306900024,6.3574418945312505
1766001781644045300,8.44004541015625,-0.2330449074506759,0.9898300170898438,1.377271056175232,6.376223388671875
1766001781662826500,8.458826416015626,-0.3703367710113525,1.3503929376602173,2.065104722976685,6.3950043945312505
1766001781681607700,8.477607666015626,-0.5189296007156372,2.2124757766723637,5.448532104492188,6.41378564453125
1766001781700388900,8.496388916015626,1.3303108215332031,3.379380226135254,3.750633478164673,6.43256689453125
1766001781719170000,8.515170166015626,0.9654718041419984,-0.0744491443037986,2.2132394313812256,6.45134814453125
1766001781737951500,8.533951416015626,0.7252492308616638,-1.8647410869598389,1.95133113861084,6.47012939453125
1766001781756732700,8.552732666015626,-0.04405862092971802,-1.7647119760513306,1.46951162815094,6.48891064453125
1766001781775513900,8.571513916015626,-1.360395908355713,2.444909811019897,0.2178496569395065,6.50769189453125
1766001781794295000,8.590294921875,-0.8133664727210999,2.6677229404449463,-0.4037052690982818,6.526472900390624
1766001781813076200,8.609076171875,0.0167987812310457,0.1245400533080101,-1.2653300762176514,6.545254150390624
1766001781831857400,8.627857421875,0.3353647589683532,-0.9359211921691896,-1.5657228231430054,6.564035400390624
1766001781850638800,8.646638916015625,0.4673115611076355,-3.1820709705352783,-1.8253402709960935,6.58281689453125
1766001781869420000,8.665419921875,0.0630717873573303,-3.237201452255249,-1.900018572807312,6.601597900390624
1766001781888201200,8.684201171875,-0.4532616734504699,-1.9015456438064573,-1.6840778589248655,6.620379150390624
1766001781906982400,8.702982421875,-0.3190241456031799,0.0335212051868438,-1.397429585456848,6.639160400390624
1766001781935154200,8.731154296875,-0.1553123742341995,1.201341986656189,-0.8291725516319275,6.667332275390624
1766001781953935600,8.749935546875,-0.2493855506181717,0.7074577808380127,-0.4944186806678772,6.686113525390624
1766001781972716800,8.768716796875,-0.0800232887268066,0.3891972303390503,-0.3380373120307922,6.704894775390624
1766001781991498000,8.787498046875,0.085826501250267,0.2396880686283111,-0.2900844216346741,6.723676025390624
1766001782010279200,8.806279052734375,0.0931568816304206,0.4501309990882873,-0.4504364132881164,6.74245703125
1766001782029060400,8.825060302734375,0.1001818254590034,0.6471349000930786,-0.6373610496520996,6.76123828125
1766001782047841800,8.843841796875,-0.1701258420944214,0.3707185685634613,-0.8914808034896851,6.780019775390624
1766001782066623000,8.862623046875,-0.1968511790037155,-0.3557523787021637,-1.0727548599243164,6.798801025390624
1766001782085404200,8.881404052734375,-0.0390953458845615,-1.0445023775100708,-1.0542762279510498,6.81758203125
1766001782104185300,8.900185302734375,0.0142026059329509,-1.0116684436798096,-0.8284090161323547,6.83636328125
1766001782122966500,8.918966552734375,-0.0325285494327545,-0.2045633494853973,-0.4960985481739044,6.85514453125
1766001782141747700,8.937747802734375,-0.0583375878632068,0.8099303245544434,-0.2500727772712707,6.87392578125
1766001782160529200,8.956529052734375,-0.0126754445955157,1.1698824167251587,-0.0709366723895073,6.89270703125
1766001782179310300,8.975310302734375,-0.0099265528842806,0.6784417033195496,-0.0229837875813245,6.91148828125
1766001782207482000,9.003482177734375,-0.0085521070286631,-0.2161697745323181,-0.1237764731049537,6.9396601562499995
1766001782226263300,9.02226318359375,-0.0303905233740806,-0.3615556061267853,-0.1127809062600135,6.958441162109375
1766001782254435300,9.050435302734376,-0.0230601448565721,-0.12713623046875,-0.0229837875813245,6.986613281250001
1766001782282607000,9.078607177734376,-0.016951497644186,-0.0209984760731458,0.0642171576619148,7.014785156250001
1766001782301388300,9.09738818359375,0.0233655776828527,-0.0321467593312263,0.1074358448386192,7.033566162109375
1766001782320169500,9.11616943359375,0.0482583157718181,-0.0260381121188402,0.1414915472269058,7.052347412109375
1766001782338950700,9.13495068359375,0.0507017783820629,-0.0332157723605632,0.1630245447158813,7.071128662109375
1766001782357732000,9.153732177734376,0.0410806573927402,0.0891098976135253,0.2479347437620163,7.089910156250001
1766001782376513300,9.17251318359375,-0.003359756199643,0.2054796367883682,0.3835467100143432,7.108691162109375
1766001782395294500,9.19129443359375,0.015882484614849,0.0301614478230476,0.5519927144050598,7.127472412109375
1766001782414075600,9.21007568359375,0.0783434063196182,0.0655916035175323,0.7602975964546204,7.146253662109375
1766001782432856800,9.22885693359375,0.0887281075119972,0.3125337064266205,0.9814306497573853,7.165034912109375
1766001782451638000,9.247637939453124,0.1081230640411377,0.6205622553825378,1.16484272480011,7.183815917968749
1766001782470419500,9.26641943359375,0.1062904745340347,0.747469425201416,1.3433680534362793,7.202597412109375
1766001782489200600,9.28520068359375,0.1434005051851272,0.6740128993988037,1.52800190448761,7.221378662109375
1766001782507981800,9.30398193359375,0.2138026654720306,0.585437536239624,1.6889647245407104,7.240159912109375
1766001782526763000,9.322762939453124,0.281455934047699,0.5182424187660217,1.8480950593948364,7.258940917968749
1766001782545544200,9.341544189453124,0.2435823380947113,0.5426769852638245,1.900018572807312,7.277722167968749
1766001782564325600,9.36032568359375,0.1788306683301925,0.5776489973068237,1.937892198562622,7.296503662109375
1766001782583106800,9.37910693359375,0.088117241859436,0.5409971475601196,1.94965136051178,7.315284912109375
1766001782601888000,9.397887939453126,-0.0255036037415266,0.5362629294395447,2.027536630630493,7.334065917968751
1766001782620669200,9.416669189453126,-0.040469791740179,0.5550470352172852,1.9047527313232424,7.352847167968751
1766001782639450400,9.435450439453126,0.0256563201546669,0.3942368626594543,1.8259512186050413,7.371628417968751
1766001782658231800,9.454231689453126,0.1111773923039436,0.1871536970138549,1.4230858087539673,7.3904096679687505
1766001782677013000,9.473012939453126,0.1551596522331237,-0.101021759212017,1.0416008234024048,7.4091909179687505
1766001782695794200,9.491794189453126,0.2926042377948761,-0.1931096315383911,0.3221548199653625,7.4279721679687505
1766001782714575400,9.510575439453126,0.4605920314788818,-0.5626828074455261,-0.2306778132915496,7.4467534179687505
1766001782733356500,9.5293564453125,0.3878991305828094,-0.6853139400482178,-1.010293960571289,7.4655344238281245
1766001782752138000,9.548137939453126,-0.9569196701049804,0.0553596206009388,-2.362137794494629,7.48431591796875
1766001782770919200,9.566919189453126,-0.2247982323169708,-0.1129336282610893,-3.0003387928009038,7.50309716796875
1766001782789700400,9.585700439453126,-0.2504545450210571,-1.068326115608215,-4.126315116882324,7.52187841796875
1766001782808481500,9.6044814453125,-0.6837103962898254,-3.3665521144866943,-5.5268754959106445,7.540659423828124
1766001782827262700,9.6232626953125,-1.3942989110946655,-5.162342071533203,-5.629347801208496,7.559440673828124
1766001782846044200,9.642044189453124,-0.7124210596084595,-2.1345906257629395,-2.877402067184448,7.5782221679687485
1766001782864825300,9.660825439453124,0.3043633699417114,-0.5443568825721741,-0.5643627047538757,7.5970034179687485
1766001782883606500,9.6796064453125,0.0763580948114395,-0.2560287117958069,0.2120464295148849,7.615784423828124
1766001782902387700,9.6983876953125,0.1133154183626174,-0.5489383339881897,0.5778017044067383,7.634565673828124
1766001782921169000,9.7171689453125,0.2156352698802948,0.3180314898490906,0.4282925724983215,7.653346923828124
1766001782939950300,9.735950439453124,-0.0018325943965464,1.0855830907821655,-0.011530072428286,7.672128417968748
1766001782958731500,9.7547314453125,-0.0236710105091333,0.8664353489875793,-0.3740783333778381,7.690909423828124
1766001782977512700,9.7735126953125,0.0053450670093297,0.3934732675552368,-0.5478693246841431,7.709690673828124
1766001782996294000,9.7922939453125,0.0151189034804701,0.1173623949289321,-0.6327795386314392,7.728471923828124
1766001783015075300,9.811075439453123,0.0387899130582809,-0.2505309283733368,-0.6175079345703125,7.747253417968748
1766001783033856500,9.8298564453125,0.1041524484753608,-0.5594757795333862,-0.4736492931842804,7.766034423828124
1766001783052637700,9.8486376953125,0.0755945146083831,-0.3068831861019134,-0.2435059696435928,7.784815673828124
1766001783071419000,9.8674189453125,-0.002901607658714,0.2851974964141845,0.0628427118062973,7.803596923828124
1766001783090200300,9.886200439453123,-0.0710130333900451,0.7473167181015015,0.4449386298656463,7.822378417968748
1766001783108981500,9.9049814453125,-0.1363755613565445,1.0287725925445557,0.8936188220977783,7.841159423828124
1766001783127762700,9.9237626953125,-0.16661337018013,1.2691479921340942,1.3642901182174685,7.859940673828126
1766001783146543900,9.9425439453125,-0.3349066078662872,2.1408519744873047,3.287445068359375,7.878721923828126
1766001783165325300,9.9613251953125,0.0975856482982635,2.130314588546753,6.341769218444824,7.897503173828126
1766001783184106500,9.9801064453125,-0.11866047978401184,3.006141901016236,2.1513893604278564,7.916284423828126
1766001783202887700,9.9988876953125,-0.8402445316314697,-0.8015309572219849,2.048764228820801,7.9350656738281256
1766001783221668900,10.0176689453125,1.478445529937744,-2.4723987579345703,1.5794672966003418,7.9538469238281255
1766001783240450000,10.036449951171877,-0.6223185062408447,0.6347648501396179,1.1822524070739746,7.972627929687501
1766001783259231500,10.0552314453125,-1.3475676774978638,4.212599754333496,-0.9244675040245056,7.9914094238281255
1766001783278012700,10.0740126953125,0.296269416809082,0.8603267073631287,-1.3679553270339966,8.010190673828125
1766001783296793900,10.0927939453125,0.3214675784111023,-0.9429461359977722,-1.6278783082962036,8.028971923828125
1766001783315575000,10.111574951171876,0.4141663312911987,-3.3599853515625,-2.0064616203308105,8.047752929687501
1766001783334356200,10.130356201171876,0.7506000995635986,-4.880275249481201,-2.115042924880981,8.066534179687501
1766001783353137700,10.1491376953125,-0.0342084281146526,-3.226358652114868,-1.9791254997253416,8.085315673828125
1766001783371918800,10.1679189453125,-0.2474002391099929,-0.7543416619300842,-1.6727768182754517,8.104096923828125
1766001783390700000,10.186699951171876,-0.0491746142506599,1.0999383926391602,-1.1575124263763428,8.122877929687501
1766001783409481200,10.205481201171876,-0.2185368686914444,1.2694534063339231,-0.6621010899543762,8.141659179687501
