time,seconds_elapsed,z,y,x,t
1766001782432856800,9.22885693359375,0.0887281075119972,0.3125337064266205,0.9814306497573853,7.165034912109375
1766001782451638000,9.247637939453124,0.1081230640411377,0.6205622553825378,1.16484272480011,7.183815917968749
1766001782470419500,9.26641943359375,0.1062904745340347,0.747469425201416,1.3433680534362793,7.202597412109375
1766001782489200600,9.28520068359375,0.1434005051851272,0.6740128993988037,1.52800190448761,7.221378662109375
1766001782507981800,9.30398193359375,0.2138026654720306,0.585437536239624,1.6889647245407104,7.240159912109375
1766001782526763000,9.322762939453124,0.281455934047699,0.5182424187660217,1.8480950593948364,7.258940917968749
1766001782545544200,9.341544189453124,0.2435823380947113,0.5426769852638245,1.900018572807312,7.277722167968749
1766001782564325600,9.36032568359375,0.1788306683301925,0.5776489973068237,1.937892198562622,7.296503662109375
1766001782583106800,9.37910693359375,0.088117241859436,0.5409971475601196,1.94965136051178,7.315284912109375
1766001782601888000,9.397887939453126,-0.0255036037415266,0.5362629294395447,2.027536630630493,7.334065917968751
1766001782620669200,9.416669189453126,-0.040469791740179,0.5550470352172852,1.9047527313232424,7.352847167968751
1766001782639450400,9.435450439453126,0.0256563201546669,0.3942368626594543,1.8259512186050413,7.371628417968751
1766001782658231800,9.454231689453126,0.1111773923039436,0.1871536970138549,1.4230858087539673,7.3904096679687505
1766001782677013000,9.473012939453126,0.1551596522331237,-0.101021759212017,1.0416008234024048,7.4091909179687505
1766001782695794200,9.491794189453126,0.2926042377948761,-0.1931096315383911,0.3221548199653625,7.4279721679687505
1766001782714575400,9.510575439453126,0.4605920314788818,-0.5626828074455261,-0.2306778132915496,7.4467534179687505
1766001782733356500,9.5293564453125,0.3878991305828094,-0.6853139400482178,-1.010293960571289,7.4655344238281245
1766001782752138000,9.548137939453126,-0.9569196701049804,0.0553596206009388,-2.362137794494629,7.48431591796875
1766001782770919200,9.566919189453126,-0.2247982323169708,-0.1129336282610893,-3.0003387928009038,7.50309716796875
1766001782789700400,9.585700439453126,-0.2504545450210571,-1.068326115608215,-4.126315116882324,7.52187841796875
1766001782808481500,9.6044814453125,-0.6837103962898254,-3.3665521144866943,-5.5268754959106445,7.540659423828124
1766001782827262700,9.6232626953125,-0.4670824706554413,-1.6014583706855774,-5.629347801208496,7.559440673828124
1766001782846044200,9.642044189453124,-0.7124210596084595,-2.1345906257629395,-2.877402067184448,7.5782221679687485
1766001782864825300,9.660825439453124,0.3043633699417114,-0.5443568825721741,-0.5643627047538757,7.5970034179687485
1766001782883606500,9.6796064453125,0.0763580948114395,-0.2560287117958069,0.2120464295148849,7.615784423828124
1766001782902387700,9.6983876953125,0.1133154183626174,-0.5489383339881897,0.5778017044067383,7.634565673828124
1766001782921169000,9.7171689453125,0.2156352698802948,0.3180314898490906,0.4282925724983215,7.653346923828124
1766001782939950300,9.735950439453124,-0.0018325943965464,1.0855830907821655,-0.011530072428286,7.672128417968748
1766001782958731500,9.7547314453125,-0.0236710105091333,0.8664353489875793,-0.3740783333778381,7.690909423828124
1766001782977512700,9.7735126953125,0.0053450670093297,0.3934732675552368,-0.5478693246841431,7.709690673828124
1766001782996294000,9.7922939453125,0.0151189034804701,0.1173623949289321,-0.6327795386314392,7.728471923828124
1766001783015075300,9.811075439453123,0.0387899130582809,-0.2505309283733368,-0.6175079345703125,7.747253417968748
1766001783033856500,9.8298564453125,0.1041524484753608,-0.5594757795333862,-0.4736492931842804,7.766034423828124
1766001783052637700,9.8486376953125,0.0755945146083831,-0.3068831861019134,-0.2435059696435928,7.784815673828124
1766001783071419000,9.8674189453125,-0.002901607658714,0.2851974964141845,0.0628427118062973,7.803596923828124
1766001783090200300,9.886200439453123,-0.0710130333900451,0.7473167181015015,0.4449386298656463,7.822378417968748
1766001783108981500,9.9049814453125,-0.1363755613565445,1.0287725925445557,0.8936188220977783,7.841159423828124
1766001783127762700,9.9237626953125,-0.16661337018013,1.2691479921340942,1.3642901182174685,7.859940673828126
1766001783146543900,9.9425439453125,-0.3349066078662872,2.1408519744873047,3.287445068359375,7.878721923828126
1766001783165325300,9.9613251953125,0.0975856482982635,2.130314588546753,6.341769218444824,7.897503173828126
1766001783184106500,9.9801064453125,-0.3349066078662872,3.006141901016236,2.1513893604278564,7.916284423828126
1766001783202887700,9.9988876953125,-0.8402445316314697,-0.8015309572219849,2.048764228820801,7.9350656738281256
1766001783221668900,10.0176689453125,-0.7312815189361572,-2.4723987579345703,1.5794672966003418,7.9538469238281255
1766001783240450000,10.036449951171877,-0.6223185062408447,0.6347648501396179,1.1822524070739746,7.972627929687501
1766001783259231500,10.0552314453125,0.296269416809082,4.212599754333496,-0.9244675040245056,7.9914094238281255
1766001783278012700,10.0740126953125,0.296269416809082,0.8603267073631287,-1.3679553270339966,8.010190673828125
1766001783296793900,10.0927939453125,0.3214675784111023,-0.9429461359977722,-1.6278783082962036,8.028971923828125
1766001783315575000,10.111574951171876,0.4141663312911987,-3.3599853515625,-2.0064616203308105,8.047752929687501
1766001783334356200,10.130356201171876,0.7506000995635986,-4.880275249481201,-2.115042924880981,8.066534179687501
1766001783353137700,10.1491376953125,-0.0342084281146526,-3.226358652114868,-1.9791254997253416,8.085315673828125
1766001783371918800,10.1679189453125,-0.2474002391099929,-0.7543416619300842,-1.6727768182754517,8.104096923828125
1766001783390700000,10.186699951171876,-0.0491746142506599,1.0999383926391602,-1.1575124263763428,8.122877929687501
1766001783409481200,10.205481201171876,-0.2185368686914444,1.2694534063339231,-0.6621010899543762,8.141659179687501
1766001783428262700,10.2242626953125,-0.1072067692875862,0.8904117941856384,-0.3099375069141388,8.160440673828125
1766001783447043800,10.2430439453125,0.1056796088814735,0.9264528155326844,-0.174172818660736,8.179221923828125
1766001783465825000,10.261824951171874,0.0855210721492767,0.9716567993164062,-0.2422842383384704,8.1980029296875
1766001783484606200,10.280606201171874,0.2028071135282516,1.097036838531494,-0.4614319801330566,8.2167841796875
1766001783503387400,10.299387451171874,0.0348192937672138,0.6098721027374268,-0.6863829493522644,8.2355654296875
1766001783522168800,10.3181689453125,-0.2806923687458038,-0.3482692837715149,-0.6659189462661743,8.254346923828125
1766001783540950000,10.336949951171874,0.0218384154140949,-0.704861581325531,-0.358806699514389,8.273127929687499
1766001783559731200,10.355731201171874,0.176234483718872,-0.3430769443511963,-0.0284815710037946,8.291909179687499
1766001783578512400,10.374512451171874,0.0569631420075893,0.1698967665433883,0.1489746421575546,8.310690429687499
1766001783597293600,10.39329345703125,0.0137444576248526,0.1304959952831268,0.1471420526504516,8.329471435546875
1766001783616075000,10.412074951171874,0.0797178521752357,-0.3244455456733703,0.0923169404268264,8.348252929687499
1766001783634856200,10.430856201171874,0.1261435747146606,-0.5031235218048096,0.0283288545906543,8.367034179687499
1766001783653637400,10.449637451171874,0.1351538300514221,-0.2325104027986526,-0.0284815710037946,8.385815429687499
1766001783672418800,10.468418701171874,0.0656679645180702,0.029245151206851,-0.0869718715548515,8.404596679687499
1766001783691200000,10.487199951171876,0.0418442375957965,-0.0087811816483736,-0.1787542998790741,8.4233779296875
1766001783709981200,10.505981201171876,0.0251981727778911,-0.2958876192569732,-0.2216675579547882,8.4421591796875
1766001783728762400,10.524762451171876,0.0384844802320003,-0.3659843504428863,-0.2103665620088577,8.4609404296875
1766001783747543600,10.54354345703125,0.0456621423363685,-0.0819322392344474,-0.1343138962984085,8.479721435546875
1766001783766325000,10.562324951171876,0.0148134706541895,0.1914297491312027,-0.0301614478230476,8.4985029296875
1766001783785106200,10.581106201171876,0.003359756199643,0.2946659028530121,0.0633008629083633,8.5172841796875
1766001783803887400,10.599887451171876,-0.024129157885909,0.3019962608814239,0.150654524564743,8.5360654296875
1766001783822668500,10.61866845703125,-0.0229074284434318,0.2207512557506561,0.227318063378334,8.554846435546875
1766001783841450000,10.637449951171876,-0.0279470644891262,0.1975383907556533,0.285502940416336,8.5736279296875
1766001783860231200,10.656231201171876,-0.0484110340476036,0.2824485898017883,0.2923751473426819,8.5924091796875
1766001783879012400,10.675012451171876,-0.0737619251012802,0.3574322462081909,0.289626270532608,8.6111904296875
1766001783897793500,10.69379345703125,-0.0919351503252983,0.256334125995636,0.2880991101264953,8.629971435546874
1766001783916574700,10.71257470703125,-0.065515249967575,0.1446985900402069,0.3042870163917541,8.648752685546874
1766001783935356200,10.731356201171875,-0.0551305450499057,0.1324812918901443,0.3268890082836151,8.6675341796875
1766001783954137300,10.750137451171875,-0.065515249967575,0.1062141135334968,0.3565159440040588,8.6863154296875
1766001783972918500,10.76891845703125,-0.0378736145794391,-0.0139735322445631,0.3780489265918731,8.705096435546874
1766001783991700000,10.787699951171875,-0.0187840927392244,-0.0060322894714772,0.4098139107227325,8.7238779296875
1766001784010481200,10.806481201171875,-0.0175623632967472,0.0637590140104293,0.4657080471515655,8.7426591796875
1766001784029262300,10.825262451171875,-0.0059559317305684,0.0903316289186477,0.5577958822250366,8.7614404296875
1766001784048043500,10.84404345703125,0.0230601448565721,0.1060613989830017,0.7008909583091736,8.780221435546874
1766001784066825000,10.862824951171875,0.0807868689298629,0.1392008066177368,0.9099594354629515,8.7990029296875
1766001784085606100,10.881606201171875,0.1537852138280868,0.2047160565853119,1.1871393918991089,8.8177841796875
1766001784104387300,10.90038720703125,0.2247982323169708,0.3244455456733703,1.458057880401611,8.836565185546874
1766001784123168500,10.91916845703125,0.3071122765541076,0.3907243907451629,1.611995816230774,8.855346435546874
1766001784141950000,10.937949951171875,0.231670469045639,0.5506182312965393,1.691560983657837,8.8741279296875
1766001784160731100,10.956731201171875,0.0821613147854805,0.572151243686676,1.8601596355438232,8.8929091796875
1766001784179512300,10.97551220703125,-0.0259617529809474,0.7671698331832886,1.8450406789779663,8.911690185546874
1766001784198293500,10.99429345703125,-0.0030543238390237,0.8235220909118652,1.93712854385376,8.930471435546874
1766001784217075000,11.013074951171877,0.0465784408152103,0.6535489559173584,1.698891282081604,8.949252929687502
1766001784235856100,11.031856201171877,0.1681405305862426,0.2143371850252151,1.5599195957183838,8.968034179687502
1766001784254637300,11.05063720703125,0.1994473487138748,0.0293978676199913,1.4409536123275757,8.986815185546876
1766001784273418500,11.06941845703125,0.2816086709499359,-0.1025489270687103,1.1333832740783691,9.005596435546876
1766001784292199700,11.08819970703125,0.4676169753074646,-0.1114064678549766,0.7725148797035217,9.024377685546876
1766001784310981000,11.106981201171877,0.4132500290870666,-0.5119810700416565,0.1871536970138549,9.043159179687501
1766001784329762300,11.12576220703125,0.295811265707016,-0.7270054221153259,-0.4595993757247925,9.061940185546876
1766001784348543500,11.14454345703125,0.217773288488388,-0.6984475255012512,-1.2561670541763306,9.080721435546875
1766001784367324700,11.16332470703125,-0.3929387629032135,-0.530154287815094,-2.2715771198272705,9.099502685546875
1766001784386106000,11.182106201171877,-0.6262891292572021,-0.4812850952148437,-3.1542766094207764,9.118284179687501
1766001784414278000,11.21027783203125,-0.3692677617073059,-1.3841432332992554,-4.775359153747559,9.146455810546875
