time,seconds_elapsed,z,y,x,t
1766001787522575400,14.318575439453124,-23.70741271972656,24.625225067138672,-0.8628556728363037,12.254753417968749
1766001787541356500,14.3373564453125,-31.41736602783203,-3.7999401092529297,-0.8609229326248169,12.273534423828124
1766001787560137700,14.3561376953125,-21.378143310546875,-23.13882064819336,-3.79807448387146,12.292315673828124
1766001787578919200,14.374919189453124,-10.084894180297852,-15.087265014648438,-5.623180389404297,12.311097167968748
1766001787597700400,14.393700439453124,0.1359014511108398,2.733919143676758,0.5815886855125427,12.329878417968748
1766001787616481500,14.4124814453125,-0.2917366027832031,11.279788970947266,7.274696350097656,12.348659423828124
1766001787635262700,14.4312626953125,1.3771352767944336,2.268411636352539,2.5243668258190155,12.367440673828124
1766001787654044200,14.450044189453124,3.4754085540771484,-6.738531112670898,4.467144966125488,12.386222167968748
1766001787672825300,14.468825439453123,6.293756484985352,-10.410272598266602,-2.053069591522217,12.405003417968748
1766001787691606500,14.4876064453125,8.04718017578125,-9.227860450744627,-3.843438625335693,12.423784423828124
1766001787710388000,14.506387939453123,6.532996654510498,-3.681651115417481,-4.838922500610352,12.442565917968748
1766001787729169200,14.525169189453123,1.3038877248764038,1.958834648132324,-4.0701165199279785,12.461347167968748
1766001787747950300,14.543950439453123,-1.5139116048812866,8.934513092041016,-2.611854553222656,12.480128417968748
1766001787766731500,14.5627314453125,7.089535713195801,6.426495552062988,1.3482754230499268,12.498909423828124
1766001787785513000,14.581512939453123,12.785825729370115,-3.320131301879883,-0.1647127866744995,12.517690917968748
1766001787804294100,14.600294189453123,8.77623462677002,-2.4679393768310547,-1.7362664937973022,12.536472167968748
1766001787823075300,14.619075439453123,3.299327850341797,0.1177959442138671,1.5848240852355957,12.555253417968748
1766001787841856800,14.637856689453123,-1.009731411933899,0.2877368927001953,2.155320405960083,12.574034667968748
1766001787860638000,14.656637939453123,-1.8141571283340452,-0.397252082824707,-0.0151687860488891,12.592815917968748
1766001787879419100,14.675419189453123,-2.06207013130188,-0.7434549331665039,-1.223670482635498,12.611597167968748
1766001787898200300,14.694200439453123,-2.1216397285461426,-0.1166114807128906,0.6675642728805542,12.630378417968748
1766001787916981800,14.712981689453123,-2.0079684257507324,0.8505315780639648,1.2053344249725342,12.649159667968748
1766001787935763000,14.731762939453125,-1.3110395669937134,0.0544395446777343,0.6595542430877686,12.66794091796875
1766001787954544000,14.750544189453125,-0.3940224647521972,-0.2658395767211914,-0.7466310262680054,12.68672216796875
1766001787973325600,14.76932568359375,0.3491212129592895,0.9647598266601562,-1.1619702577590942,12.705503662109376
1766001787992106800,14.788106689453125,1.1526076793670654,0.419647216796875,-0.6693881750106812,12.72428466796875
1766001788010888000,14.806887939453125,2.3732051849365234,-0.0646343231201171,-0.5843244791030884,12.74306591796875
1766001788029669000,14.825669189453125,4.066497802734375,0.013655662536621,-0.3266059756278991,12.76184716796875
1766001788048450600,14.844450439453125,5.9034295082092285,-0.7296085357666016,0.1171028017997741,12.78062841796875
1766001788067231700,14.863231689453125,7.130511283874512,-0.9560794830322266,-0.2281428575515747,12.79940966796875
1766001788086013000,14.882012939453125,7.213612556457519,-0.6842679977416992,-0.3477795124053955,12.81819091796875
1766001788104794400,14.90079443359375,6.418330192565918,0.054213523864746,-0.1613567471504211,12.836972412109375
1766001788123575600,14.919575439453125,4.933803081512451,-0.2669906616210937,0.1103640794754028,12.85575341796875
1766001788142356700,14.938356689453125,2.937514543533325,-0.4042997360229492,-0.7538859844207764,12.87453466796875
1766001788161138200,14.95713818359375,2.6042733192443848,0.1464738845825195,-1.2576500177383425,12.893316162109375
1766001788179919400,14.97591943359375,0.009204626083374,0.5597209930419922,-0.328687310218811,12.912097412109375
1766001788198700500,14.994700439453124,-1.1322402954101562,0.1117610931396484,1.0441409349441528,12.93087841796875
1766001788217482000,15.01348193359375,-1.7422142028808594,-2.0994763374328613,1.046031475067139,12.949659912109375
1766001788236263200,15.03226318359375,-2.82012939453125,-5.246410369873047,-1.0098111629486084,12.968441162109375
1766001788255044400,15.05104443359375,-6.943728446960449,-7.856756687164307,-2.4717354774475098,12.987222412109375
1766001788273825800,15.06982568359375,-8.525434494018555,-8.233664512634277,-0.9096930027008056,13.006003662109375
1766001788292607000,15.08860693359375,-11.691730499267578,-1.688851833343506,1.618848204612732,13.024784912109375
1766001788311388200,15.10738818359375,-15.29787826538086,4.819354057312012,3.476597785949707,13.043566162109375
1766001788330169300,15.12616943359375,-17.566699981689453,10.74765396118164,3.8391950130462646,13.062347412109375
1766001788348950800,15.14495068359375,-19.486865997314453,11.914752006530762,1.9683929681777956,13.081128662109375
1766001788367732000,15.16373193359375,-18.457012176513672,9.684329986572266,0.9447738528251648,13.099909912109375
1766001788386513200,15.18251318359375,-13.066774368286133,13.398480415344238,-1.357211351394653,13.118691162109375
1766001788405294600,15.201294677734374,-5.659465312957764,15.559731483459473,-2.2355337142944336,13.137472656249999
1766001788424075800,15.22007568359375,0.872974157333374,5.098700523376465,3.704203605651856,13.156253662109375
1766001788442857000,15.23885693359375,12.39474391937256,-10.690925598144531,8.431480407714844,13.175034912109375
1766001788461638400,15.257638427734374,15.861867904663086,-18.70047378540039,2.126835823059082,13.193816406249999
1766001788480419600,15.276419677734374,9.527325630187988,-9.573698043823242,0.160157561302185,13.212597656249999
1766001788499200800,15.29520068359375,8.62160873413086,-8.91914176940918,-1.6634341478347778,13.231378662109375
1766001788517982200,15.313982177734376,1.087926745414734,-9.001419067382812,0.7722612619400024,13.25016015625
1766001788536763400,15.332763427734376,-0.5687834024429321,-9.886849403381348,3.5818145275115967,13.26894140625
1766001788555544600,15.351544677734376,0.2140275239944458,-9.523934364318848,-0.1952075362205505,13.28772265625
1766001788574326000,15.370325927734376,0.8950777053833008,-9.943140983581545,-1.0179991722106934,13.30650390625
1766001788593107200,15.389107177734376,1.494531512260437,-10.253479957580566,0.4096401333808899,13.32528515625
1766001788611888400,15.407888427734376,1.8734443187713623,-10.315406799316406,0.7858501672744751,13.34406640625
1766001788630669800,15.426669921875,2.055830955505371,-10.223073959350586,0.4627544283866882,13.362847900390625
1766001788649451000,15.445450927734376,2.2447023391723637,-10.031033515930176,0.3583580255508423,13.38162890625
1766001788668232200,15.464232177734376,2.306940793991089,-9.90652847290039,0.3083050847053528,13.40041015625
1766001788687013600,15.483013671875,2.3100759983062744,-9.718754768371582,0.5063221454620361,13.419191650390625
1766001788705794800,15.501794921875,2.6905105113983154,-9.654638290405272,0.6350005865097046,13.437972900390625
1766001788724576300,15.520576171875,3.108198642730713,-12.585536003112791,-0.1130489706993103,13.456754150390625
1766001788743357400,15.539357421875,-12.028419494628906,-8.591925621032715,0.066077172756195,13.475535400390624
1766001788762138600,15.558138671875,3.676774024963379,25.93707275390625,-4.893623352050781,13.494316650390624
1766001788780920000,15.576920166015626,-8.04763412475586,23.074901580810547,-3.8662924766540527,13.51309814453125
1766001788799701200,15.595701171875,0.2778949737548828,3.127678871154785,5.300123691558838,13.531879150390624
1766001788818482400,15.614482421875,3.344925880432129,37.55803680419922,6.552952289581299,13.550660400390624
1766001788837263600,15.633263671875,-22.666736602783203,15.488580703735352,-4.780002593994141,13.569441650390624
1766001788856045000,15.652045166015624,-20.227087020874023,-5.051114082336426,-0.6522454023361206,13.588223144531248
1766001788874826200,15.670826171875,-14.486197471618652,-11.571771621704102,-4.179072856903076,13.607004150390624
1766001788893607400,15.689607421875,-6.270206928253174,-6.063111305236816,-5.23349666595459,13.625785400390624
1766001788912388900,15.708388916015624,-0.6950678825378418,0.416666030883789,0.175299733877182,13.644566894531248
1766001788931170000,15.727170166015624,1.4561553001403809,-0.2244691848754882,5.531464576721191,13.663348144531248
1766001788949951200,15.745951171875,2.597820520401001,-3.5305233001708984,7.403357028961182,13.682129150390624
1766001788968732700,15.764732666015624,3.0711779594421387,-5.996214866638184,3.775160551071167,13.700910644531248
1766001788987513900,15.783513916015623,3.753263950347901,-6.492707252502441,1.9286673069000244,13.719691894531248
1766001789006295000,15.802294921875,3.000234603881836,-5.143388748168945,0.3027055263519287,13.738472900390624
1766001789025076200,15.821076171875,0.9636948108673096,-3.629776954650879,-1.3796885013580322,13.757254150390624
1766001789043857700,15.839857666015623,-0.5158462524414062,-0.7358121871948242,-1.1081724166870115,13.776035644531248
1766001789062638800,15.858638916015623,-1.3231520652770996,4.605083465576172,-1.023552656173706,13.794816894531248
1766001789081420000,15.877419921875,-2.21189284324646,8.393122673034668,-0.5392457246780396,13.813597900390624
1766001789100201500,15.896201416015623,-1.3567532300949097,5.311334609985352,-1.8599660396575928,13.832379394531248
1766001789118982700,15.914982666015623,4.282008647918701,-0.7735776901245117,-3.1449851989746094,13.851160644531248
1766001789137763800,15.933763916015623,10.181561470031738,-3.550642490386963,-0.5907400250434875,13.869941894531248
1766001789156545300,15.952545166015623,9.978815078735352,-1.5969295501708984,1.945642709732056,13.888723144531248
1766001789175326500,15.971326416015623,6.507211208343506,-0.7002162933349609,2.4482126235961914,13.907504394531248
1766001789194107600,15.990107666015623,4.723463535308838,-0.8828487396240234,-0.0143341422080993,13.926285644531248
1766001789212889000,16.00888916015625,5.5864434242248535,-1.020587921142578,-1.0538842678070068,13.945067138671876
1766001789231670300,16.027670166015625,5.452489852905273,-0.237309455871582,-0.6554713845252991,13.96384814453125
1766001789250451500,16.046451416015625,5.716727256774902,0.2620248794555664,0.184385597705841,13.982629394531248
1766001789269233000,16.06523291015625,6.335199356079102,-0.2218523025512695,0.6739559769630432,14.001410888671874
1766001789297404700,16.09340478515625,2.472674369812012,-0.2349786758422851,-1.9000550508499143,14.029582763671872
1766001789316186000,16.11218603515625,1.1356494426727295,0.7230081558227539,-1.0556045770645142,14.048364013671872
1766001789334967300,16.13096728515625,-2.1232903003692627,1.2736749649047852,0.6200326085090637,14.067145263671872
1766001789353748500,16.14974853515625,-3.418095588684082,0.1663904190063476,0.3641951382160187,14.085926513671872
1766001789372529700,16.16852978515625,-0.9254345893859864,-3.3742218017578125,0.3565616011619568,14.104707763671872
1766001789391311000,16.18731103515625,-2.447619915008545,-4.391304016113281,0.8524092435836792,14.123489013671872
1766001789410092300,16.20609228515625,-8.60562515258789,-4.503770351409912,0.6725703477859497,14.142270263671872
1766001789428873500,16.22487353515625,-10.534174919128418,-8.501416206359863,0.144240915775299,14.161051513671872
1766001789447655000,16.243655029296875,-13.448704719543455,-5.477243900299072,-1.440759539604187,14.179833007812498
1766001789466436000,16.26243603515625,-13.918380737304688,2.816102981567383,-0.9182146191596984,14.198614013671872
1766001789485217300,16.28121728515625,-17.684398651123047,26.27755355834961,4.553231716156006,14.217395263671872
1766001789503998500,16.29999853515625,-18.402877807617188,11.294883728027344,2.918811082839966,14.236176513671872
