time,seconds_elapsed,z,y,x,t
1766001268258024200,4.873024169921875,1.0270164012908936,-0.0651334598660469,0.8607848286628723,3.0893825683593747
1766001268276804600,4.8918046875,1.3099994659423828,0.7302125096321106,0.9189696907997132,3.1081630859374996
1766001268295585000,4.9105849609375,1.441640853881836,1.5855759382247925,1.0121265649795532,3.1269433593750002
1766001268314365400,4.929365478515625,1.492953538894653,2.516533851623535,1.242422580718994,3.145723876953125
1766001268333145900,4.948145751953125,1.6815580129623413,2.9510114192962646,1.3409245014190674,3.164504150390625
1766001268351926300,4.96692626953125,2.009439706802368,2.714606761932373,1.096578598022461,3.1832846679687496
1766001268370707000,4.98570703125,2.092059135437012,2.0147085189819336,0.757243275642395,3.2020654296874995
1766001268389487400,5.0044873046875,1.8200715780258176,1.399720311164856,0.4939605295658111,3.220845703125
1766001268408267800,5.023267822265625,1.6058107614517212,1.147433161735535,0.3343721032142639,3.239626220703125
1766001268427048200,5.042048095703125,1.4230095148086548,0.7870228886604309,0.09414953738451,3.2584064941406248
1766001268445828900,5.060828857421875,0.7968730926513672,0.2992473840713501,-0.1957058012485504,3.2771872558593746
1766001268464609300,5.079609375,0.1423314958810806,-0.5802451968193054,-0.7230347990989685,3.2959677734375004
1766001268492779800,5.10777978515625,-1.0364848375320437,-1.318627953529358,-1.4534764289855957,3.32413818359375
1766001268511560400,5.126560546875,-1.760512351989746,-1.8239659070968628,-1.7738749980926514,3.3429189453125
1766001268530340900,5.1453408203125,-1.9385793209075928,-2.06495213508606,-1.857105255126953,3.3616992187499997
1766001268549121300,5.164121337890625,-1.4796671867370603,-0.6394990682601929,-0.2354120165109634,3.3804797363281254
1766001268567901700,5.182901611328125,-0.4228711426258087,-0.6755400896072388,-0.5635991096496582,3.399260009765625
1766001268586682000,5.20168212890625,0.0091629717499017,1.9258276224136357,-1.3762019872665403,3.41804052734375
1766001268605462800,5.220462890625,-1.4549272060394287,-0.2082285284996032,-0.6761509776115417,3.4368212890625
1766001268624243200,5.2392431640625,-1.0722204446792605,0.6642391085624695,-0.0723111182451248,3.4556015624999996
1766001268643023600,5.258023681640625,0.0059559317305684,1.1391865015029907,0.2873355150222778,3.4743820800781253
1766001268661804000,5.276803955078125,0.5755873322486877,0.6613374948501587,0.6688205599784851,3.493162353515625
1766001268680584400,5.29558447265625,0.7348703145980835,0.760755717754364,0.9898300170898438,3.51194287109375
1766001268699364900,5.31436474609375,0.7695369124412537,1.0713804960250854,1.139797329902649,3.5307231445312497
1766001268718145500,5.3331455078125,0.6830995678901672,1.2230277061462402,1.2798380851745603,3.5495039062499996
1766001268736926000,5.351926025390625,0.8785762786865234,1.4831032752990725,1.1266636848449707,3.5682844238281253
1766001268755706400,5.370706298828125,1.0499238967895508,1.9820271730422971,0.8526908755302429,3.587064697265625
1766001268774486800,5.38948681640625,0.8561269640922546,2.303494691848755,0.7628937363624573,3.60584521484375
1766001268793267500,5.408267333984375,0.5297724604606628,1.8868849277496336,0.6257545948028564,3.6246257324218747
1766001268812048000,5.4270478515625,0.273667424917221,1.084666728973389,0.4376082420349121,3.6434062499999995
1766001268830828300,5.445828369140625,0.3634645342826843,0.0804050788283348,0.1969275325536728,3.6621867675781252
1766001268849608700,5.464608642578125,0.0102319847792387,-0.711122989654541,-0.2729802131652832,3.680967041015625
1766001268868389000,5.48338916015625,-0.8619301915168762,-1.3239730596542358,-1.078863501548767,3.69974755859375
1766001268887169800,5.502169677734375,-1.960265040397644,-1.5735113620758057,-1.9696571826934812,3.7185280761718746
1766001268905950200,5.5209501953125,-2.975216865539551,-1.3253475427627563,-1.269606113433838,3.7373085937500004
1766001268924730600,5.539730712890625,-3.3957972526550293,-1.6842305660247805,-1.9696571826934812,3.756089111328125
1766001268943511000,5.558510986328125,-3.0692901611328125,-2.1072545051574707,-1.269606113433838,3.774869384765625
1766001268981072100,5.596072021484375,-0.4984656572341919,-0.231899544596672,-2.1800999641418457,3.8124304199218746
1766001268999852500,5.6148525390625,-2.006385326385498,-3.4287075996398926,-1.2422698736190796,3.8312109375000003
1766001269018633000,5.633633056640625,-2.052352905273437,-1.82488214969635,-0.4350120723247528,3.849991455078125
1766001269037413400,5.652413330078125,-0.5079340934753418,-2.316628217697144,-0.1269835233688354,3.868771728515625
1766001269056193800,5.67119384765625,0.2406807243824005,-2.9313108921051025,0.2010508775711059,3.8875522460937497
1766001269074974500,5.689974365234375,0.4569268524646759,-1.986303210258484,0.6761509776115417,3.9063327636718745
1766001269093755000,5.7087548828125,0.7907644510269165,-0.923703908920288,1.1740057468414309,3.9251132812500003
1766001269112535300,5.727535400390625,1.0528254508972168,-0.0191658828407526,1.4533237218856812,3.943893798828125
1766001269131315700,5.746315673828125,1.0009019374847412,0.757243275642395,1.6802599430084229,3.962674072265625
1766001269150096100,5.76509619140625,0.9117156863212584,1.3626102209091189,1.824271321296692,3.9814545898437497
1766001269168876800,5.783876708984375,1.067638874053955,1.785175919532776,1.953163743019104,4.000235107421874
1766001269187657200,5.8026572265625,1.3188570737838743,1.8827615976333616,1.9832488298416135,4.019015625
1766001269206437600,5.821437744140625,1.4732531309127808,1.6367357969284058,1.894673466682434,4.0377961425781255
1766001269225218000,5.840218017578125,1.524107575416565,1.068937063217163,1.6177990436553955,4.056576416015625
1766001269243998700,5.858998779296875,1.443168044090271,0.5498546361923218,1.3685661554336548,4.075357177734375
1766001269262779100,5.877779052734375,1.3249657154083252,0.0590248107910156,1.280754327774048,4.094137451171875
1766001269281559600,5.8965595703125,1.373071312904358,-0.7862593531608582,1.1208604574203491,4.112917968750001
1766001269300340000,5.915340087890625,1.4285073280334473,-1.7109558582305908,0.8267291188240051,4.1316984863281245
1766001269319120400,5.934120361328125,1.386052131652832,-2.4785075187683105,0.4599048197269439,4.150478759765624
1766001269337901000,5.952901123046875,1.091004490852356,-2.8366270065307617,0.104534238576889,4.169259521484374
1766001269356681500,5.971681396484375,0.5937605500221252,-2.7630176544189453,-0.1240819096565246,4.188039794921876
1766001269375462000,5.9904619140625,0.2510654330253601,-2.607705354690552,-0.2005927264690399,4.2068203125
1766001269394242300,6.0092421875,0.2026543915271759,-2.406272649765014,-0.1416442692279815,4.225600585937499
1766001269413023000,6.02802294921875,0.2579376399517059,-2.2187371253967285,-0.0465020798146724,4.244381347656249
1766001269431803400,6.046803466796875,0.2616028487682342,-2.1793365478515625,0.0568867810070514,4.263161865234375
1766001269450583800,6.065583740234375,0.2753472924232483,-2.368399143218994,0.1036179363727569,4.281942138671875
1766001269469364200,6.0843642578125,0.3779725730419159,-2.6322927474975586,0.0727692693471908,4.3007226562500005
1766001269488145000,6.103144775390625,0.4650208055973053,-2.750800371170044,0.0335212051868438,4.319503173828124
1766001269506925300,6.12192529296875,0.4155407547950744,-2.8444154262542725,-0.0032833982259035,4.33828369140625
1766001269525705700,6.140705810546875,0.328492522239685,-2.8386123180389404,-0.0365755297243595,4.357064208984374
1766001269544486100,6.159486083984375,0.3061959743499756,-2.8383069038391118,-0.0730746984481811,4.375844482421876
1766001269563266800,6.178266845703125,0.3203985691070556,-2.854800224304199,-0.0990364551544189,4.3946252441406255
1766001269582047200,6.197047119140625,0.3161225318908691,-2.834641695022583,-0.1057559624314308,4.413405517578125
1766001269610218000,6.225218017578125,0.2440404742956161,-2.6707770824432373,-0.0403934344649314,4.441576416015625
1766001269628998400,6.243998291015625,0.2246455252170562,-2.408410787582397,-0.0330630578100681,4.460356689453125
1766001269647778800,6.26277880859375,0.2950477004051208,-1.857105255126953,0.0161115583032369,4.4791372070312505
1766001269666559200,6.281559326171875,0.4369210302829742,-1.1695770025253296,0.0993418842554092,4.4979177246093744
1766001269685340000,6.30033984375,0.4760163724422455,-0.4684569239616394,0.0921642258763313,4.5166982421875
1766001269704120300,6.319120361328125,0.0786488428711891,-0.2783252596855163,-0.0255799628794193,4.535478759765624
1766001269722900700,6.337900634765625,-0.3347539007663727,-0.3325395286083221,-0.2470184415578842,4.554259033203126
1766001269741681200,6.35668115234375,-0.4751000702381134,-0.3514763116836548,-0.367969661951065,4.57303955078125
1766001269760461800,6.3754619140625,-0.2910770773887634,-0.2641226649284363,-0.2629009187221527,4.5918203124999994
1766001269779242200,6.3942421875,-0.0812450125813484,-0.1749363988637924,-0.1408806890249252,4.610600585937499
1766001269798022700,6.413022705078125,-0.1067486181855201,0.1706603467464447,-0.1164461001753807,4.629381103515625
1766001269816803300,6.43180322265625,-0.1759290546178817,0.4337903559207916,-0.1074358448386192,4.648161621093751
1766001269835583700,6.450583740234375,-0.1075121983885765,0.4021781086921692,-0.0631481483578682,4.666942138671875
1766001269854364200,6.4693642578125,0.0346665754914283,0.1512653976678848,-0.0352010838687419,4.68572265625
1766001269873144600,6.48814453125,0.1165224537253379,-0.1815031915903091,-0.0451276339590549,4.7045029296875
1766001269891925200,6.50692529296875,0.1492037177085876,-0.3197113573551178,-0.0503199845552444,4.72328369140625
1766001269910705700,6.52570556640625,0.1684459596872329,-0.2755763828754425,-0.0408515818417072,4.74206396484375
1766001269929486000,6.544486083984375,0.2029598206281662,-0.1735619604587555,-0.052152581512928,4.760844482421875
1766001269948266500,6.5632666015625,0.2376264035701751,-0.1900553107261657,-0.096440277993679,4.779624999999999
1766001269967047200,6.582047119140625,0.263893574476242,-0.2853502035140991,-0.1202640011906623,4.798405517578125
1766001269985827600,6.60082763671875,0.2606865465641022,-0.3736201822757721,-0.0988837331533432,4.817186035156251
1766001270004608000,6.61960791015625,0.1963930279016494,-0.3197113573551178,-0.0645225942134857,4.8359663085937505
1766001270023388400,6.638388427734375,0.1272125840187072,-0.1057559624314308,-0.0410043001174926,4.8547468261718745
1766001270042169000,6.657169189453125,0.0583375878632068,0.1147662177681922,-0.0213039088994264,4.873527587890624
1766001270060949500,6.675949462890625,0.0142026059329509,0.2222784161567688,0.0017562361899763,4.892307861328124
1766001270089120300,6.704120361328125,0.0474947355687618,0.0643698796629905,-0.0098501946777105,4.920478759765626
1766001270107900700,6.722900634765625,0.1117882579565048,-0.3247509896755218,-0.0845284163951873,4.939259033203125
1766001270126681300,6.741681396484375,0.1861610412597656,-0.2409097999334335,-0.0179441533982753,4.958039794921875
1766001270145461800,6.760461669921875,0.1207985132932663,-0.2586248815059662,-0.0043524117209017,4.976820068359375
1766001270164242200,6.7792421875,0.1322522312402725,-0.2057850658893585,0.0006872228696011,4.995600585937501
1766001270183022600,6.798022705078125,0.1313359290361404,-0.3158934414386749,-0.0045051276683807,5.014381103515625
1766001270201803300,6.81680322265625,0.1459966748952865,-0.3140608668327331,-0.0132099511101841,5.03316162109375
1766001270220583700,6.835583740234375,0.1374445706605911,-0.3160461783409118,-0.0199294630438089,5.051942138671874
1766001270239364000,6.854364013671875,0.1148425787687301,-0.2940550446510315,-0.0199294630438089,5.070722412109374
1766001270258144500,6.87314453125,0.0560468435287475,-0.1207221522927284,0.0002290742995683,5.0895029296875
1766001270276925200,6.89192529296875,-0.0113009987398982,0.0608574040234088,0.0155006935819983,5.10828369140625
