time,seconds_elapsed,z,y,x,t
1766001266248516000,2.86351611328125,-0.2955058515071869,1.7068325281143188,-0.4606684148311615,1.0798745117187498
1766001266267296500,2.882296630859375,-1.152243733406067,0.6150645017623901,-1.003269076347351,1.098655029296875
1766001266286077000,2.901076904296875,-1.382845163345337,-0.8545234799385071,-1.8047236204147337,1.1174353027343749
1766001266304857300,2.919857421875,-1.946367859840393,-1.6349031925201416,-2.529820203781128,1.1362158203125001
1766001266323637800,2.9386376953125,-2.318995475769043,-1.900476694107056,-2.886717796325684,1.15499609375
1766001266342418400,2.95741845703125,-2.525620460510254,-1.4603486061096191,-2.798295259475708,1.1737768554687498
1766001266361198800,2.97619873046875,-2.6587889194488525,-1.1729366779327393,-2.313726663589477,1.19255712890625
1766001266379979300,2.994979248046875,-2.3878703117370605,-1.1196388006210327,-1.85970151424408,1.2113376464843748
1766001266398759700,3.013759765625,-1.851989269256592,0.395305871963501,-0.5796343088150024,1.2301181640625
1766001266417540000,3.0325400390625,-0.5131264328956604,-0.2816850244998932,0.0843756943941116,1.2488984374999998
1766001266436320500,3.051320556640625,0.4042397737503052,0.7686969637870789,-0.946458637714386,1.2676789550781251
1766001266455101000,3.070100830078125,-0.8801034092903137,-0.4017199575901031,-0.492127925157547,1.2864592285156249
1766001266473881300,3.08888134765625,-1.17194402217865,-0.1563050299882888,0.0436004735529422,1.3052397460937502
1766001266492661800,3.107661865234375,-0.0251981727778911,0.0298560168594121,0.1630245447158813,1.324020263671875
1766001266511442200,3.126442138671875,0.755181610584259,-0.7392227649688721,0.3539197742938995,1.3428005371093747
1766001266530222600,3.14522265625,0.8871283531188965,-0.1430187225341797,0.7783181071281433,1.3615810546875
1766001266549003000,3.1640029296875,1.129947066307068,0.5318341255187988,1.1266636848449707,1.3803613281249998
1766001266567783400,3.182783447265625,1.1992802619934082,1.1268163919448853,1.395902395248413,1.399141845703125
1766001266586564000,3.201564208984375,1.1366666555404663,1.6048181056976318,1.5255584716796875,1.417922607421875
1766001266605344500,3.220344482421875,1.1621702909469604,2.1266493797302246,1.4637084007263184,1.4367028808593751
1766001266624125000,3.239125,1.1856884956359863,2.593502759933472,1.2888482809066772,1.4554833984375
1766001266642905300,3.2579052734375,1.1444551944732666,2.705596446990967,1.0929133892059326,1.4742636718749997
1766001266661685800,3.276685791015625,0.9195042252540588,2.180863618850708,0.700738251209259,1.493044189453125
1766001266680466200,3.295466064453125,0.2218966335058212,1.0990221500396729,0.0822376683354377,1.5118244628906248
1766001266699246600,3.31424658203125,-0.3207040131092071,-0.1923460513353347,-0.5051088333129883,1.53060498046875
1766001266718027000,3.333027099609375,-0.4563159942626953,-1.2718968391418457,-1.0875684022903442,1.5493854980468749
1766001266736807400,3.351807373046875,-0.6644681692123413,-1.9566762447357176,-1.5235731601715088,1.568165771484375
1766001266755587800,3.370587890625,-1.1368193626403809,-1.9624794721603396,-1.7873139381408691,1.5869462890625
1766001266774368500,3.389368408203125,-1.7411173582077026,-1.4039963483810425,-1.830227255821228,1.6057268066406247
1766001266793149000,3.40814892578125,-1.99157190322876,-1.007697820663452,-1.7222568988800049,1.62450732421875
1766001266811929300,3.426929443359375,-2.022878646850586,-0.5903244614601135,-1.3629156351089478,1.6432878417968748
1766001266830709800,3.445709716796875,-1.159879446029663,-0.9398918151855468,0.3539197742938995,1.662068115234375
1766001266849490200,3.464490234375,0.0988073796033859,-0.5298488140106201,-0.2338848561048507,1.6808486328124999
1766001266868270600,3.4832705078125,0.0258090365678071,0.349643737077713,-0.4374555349349975,1.69962890625
1766001266887051000,3.502051025390625,-0.8544471263885498,-1.6701806783676147,0.1278998106718063,1.718409423828125
1766001266905831400,3.52083154296875,-0.3287979662418365,-0.3557523787021637,0.6675988435745239,1.7371899414062497
1766001266924611800,3.53961181640625,0.7104357481002808,0.2577085793018341,0.8328377604484558,1.75597021484375
1766001266943392300,3.558392333984375,1.016784429550171,-0.1390480995178222,1.1460586786270142,1.7747507324218748
1766001266962173000,3.5771728515625,1.1893537044525146,0.4344012141227722,1.3882665634155271,1.79353125
1766001266980953300,3.595953369140625,1.6407828330993652,1.3728421926498413,1.490739107131958,1.8123117675781248
1766001266999733800,3.614733642578125,1.793498992919922,1.8378630876541135,1.5044835805892944,1.831092041015625
1766001267018514200,3.63351416015625,1.6462805271148682,2.2524874210357666,1.4861576557159424,1.8498725585937499
1766001267037294600,3.652294677734375,1.6546800136566162,2.610912322998047,1.4146864414215088,1.8686530761718751
1766001267056075000,3.671074951171875,1.8387030363082888,2.656269073486328,1.2731186151504517,1.887433349609375
1766001267074855400,3.68985546875,1.9689699411392207,2.557767152786255,1.1291072368621826,1.9062138671874997
1766001267093636000,3.708635986328125,2.1358888149261475,2.474231481552124,1.074129343032837,1.924994384765625
1766001267112416500,3.72741650390625,2.2876884937286377,2.0144028663635254,1.0110576152801514,1.9437749023437498
1766001267131197000,3.746197021484375,2.138026714324951,1.373453140258789,0.8942296504974365,1.962555419921875
1766001267149977300,3.764977294921875,1.8761184215545652,0.7175370454788208,0.5661953091621399,1.9813356933593749
1766001267168757800,3.7837578125,1.4355322122573853,0.3030652999877929,0.117209680378437,2.0001162109375
1766001267187538200,3.8025380859375,0.7203623056411743,0.1175151094794273,-0.3888917863368988,2.018896484375
1766001267206318600,3.821318603515625,-0.0931568816304206,-0.1217911690473556,-0.9191223978996276,2.0376770019531247
1766001267225099000,3.84009912109375,-0.9966259002685548,-0.4915170669555664,-1.487837553024292,2.05645751953125
1766001267243879400,3.85887939453125,-1.997833251953125,-0.9921207427978516,-2.038532018661499,2.0752377929687498
1766001267262660000,3.87766015625,-2.464228630065918,-1.8215223550796509,-2.2973861694335938,2.0940185546875
1766001267281440500,3.8964404296875,-2.3981025218963623,-1.767460823059082,-0.9469167590141296,2.112798828125
1766001267300221000,3.915220947265625,-0.9789108037948608,-2.738277673721313,-0.3520871996879577,2.131579345703125
1766001267319001300,3.93400146484375,0.1562286615371704,-0.1750891208648681,-1.6657519340515137,2.15035986328125
1766001267347172000,3.962172119140625,-1.8170173168182373,-3.5458409786224365,-0.2607629001140594,2.178530517578125
1766001267365952500,3.980952392578125,-1.341153621673584,-1.1766018867492676,0.4536434710025787,2.197310791015625
1766001267384733000,3.99973291015625,0.1710421442985534,-1.1211659908294678,0.7277690172195435,2.21609130859375
1766001267403513300,4.018513427734375,0.3046688139438629,-0.7308233380317688,0.908890426158905,2.2348718261718745
1766001267422293800,4.037293701171875,0.0817031636834144,0.3824777007102966,1.102229118347168,2.253652099609375
1766001267441074200,4.05607421875,0.2635881602764129,0.6512582302093506,1.2818233966827393,2.2724326171875
1766001267459854600,4.0748544921875,0.4505127668380737,0.8653663396835327,1.2648718357086182,2.2912128906249998
1766001267478635300,4.09363525390625,0.4938841760158539,1.0753511190414429,1.1101703643798828,2.3099936523437496
1766001267497415700,4.112415771484375,0.5163334608078003,0.9482911825180054,0.8537598848342896,2.3287741699218754
1766001267525586200,4.140586181640625,0.4841103255748749,0.6958513259887695,0.641331672668457,2.356944580078125
1766001267544366600,4.15936669921875,0.3219257295131683,0.0816268026828765,0.5148826241493225,2.37572509765625
1766001267563147300,4.178147216796875,0.1392771750688552,-0.4991528689861297,0.3108538091182709,2.3945056152343747
1766001267581927700,4.196927734375,-0.1114828214049339,-0.6981421113014221,0.1220965981483459,2.4132861328125004
1766001267600708000,4.2157080078125,-0.4098902642726898,-0.9744057059288024,-0.2186132371425628,2.43206640625
1766001267619488500,4.234488525390625,-0.8590285778045654,-1.1497238874435425,-0.6288089156150818,2.450846923828125
1766001267638269000,4.25326904296875,-1.3501639366149902,-1.3806307315826416,-1.0521382093429563,2.46962744140625
1766001267657049300,4.27204931640625,-1.9663736820220947,-1.5021928548812866,-1.4817289113998413,2.4884077148437496
1766001267675829800,4.290829833984375,-2.4849979877471924,-1.6368885040283203,-1.672318696975708,2.5071882324218753
1766001267694610400,4.3096103515625,-2.3955061435699463,-2.097022533416748,-1.4994440078735352,2.52596875
1766001267713390800,4.328390869140625,-1.7096577882766724,-1.7902156114578247,-0.0246636662632226,2.544749267578125
1766001267732171300,4.347171142578125,-0.5174024701118469,-1.860923171043396,0.1723402291536331,2.5635295410156247
1766001267750951700,4.36595166015625,0.6360629796981812,-0.5038870573043823,-0.6515636444091797,2.5823100585937495
1766001267769732000,4.384732177734375,-0.1449276655912399,-2.0728933811187744,-0.0269544087350368,2.6010905761718752
1766001267788512800,4.4035126953125,-0.6904299259185791,-1.3094650506973269,0.525420069694519,2.61987109375
1766001267807293200,4.422293212890625,0.1165224537253379,-0.2493091821670532,0.581314206123352,2.638651611328125
1766001267826073600,4.441073486328125,0.6409498453140259,-0.2636645138263702,0.8079450130462646,2.6574318847656246
1766001267844854000,4.45985400390625,0.5852084755897522,0.1636354029178619,1.1872920989990234,2.6762124023437504
1766001267863634400,4.478634521484375,0.8486438989639282,1.1721731424331665,1.4036909341812134,2.694992919921875
1766001267882414800,4.497414794921875,0.9227112531661988,1.706068992614746,1.4495058059692385,2.713773193359375
1766001267901195300,4.5161953125,0.6194168925285339,1.869475245475769,1.3126720190048218,2.7325537109374998
1766001267919976000,4.534975830078125,0.3119991719722748,1.8645883798599243,1.127732753753662,2.7513342285156246
1766001267938756400,4.55375634765625,0.3663661479949951,1.5296818017959597,0.8791107535362244,2.7701147460937503
1766001267957536800,4.572536865234375,0.3350593447685241,0.8465822339057922,0.3268890082836151,2.788895263671875
1766001267976317200,4.591317138671875,-0.5120574235916138,-0.4206567704677582,-0.2439641207456588,2.807675537109375
1766001267995097600,4.61009765625,-0.8268054723739624,-1.8453460931777956,-0.8354339599609375,2.8264560546874997
1766001268013878000,4.6288779296875,-1.117882490158081,-2.2298855781555176,-1.096578598022461,2.8452363281249995
1766001268032658700,4.64765869140625,-1.3489421606063845,-2.490419387817383,-1.1917208433151243,2.8640170898437503
1766001268051439000,4.666439208984375,-1.554956316947937,-2.4588069915771484,-1.2146282196044922,2.882797607421875
1766001268070219500,4.685219482421875,-1.5506802797317505,-2.5424954891204834,-1.2175298929214478,2.901577880859375
1766001268089000000,4.704,-1.3956732749938965,-2.392375469207764,-0.6440805792808533,2.9203583984374997
1766001268107780400,4.7227802734375,-0.726470947265625,-2.295248031616211,0.6063596606254578,2.9391386718750003
1766001268126560800,4.741560791015625,0.0928514450788497,-0.7485384345054626,0.0633008629083633,2.957919189453125
1766001268145341400,4.760341552734375,0.2701549530029297,0.0199294630438089,-0.1573740392923355,2.976699951171875
1766001268164121900,4.779121826171875,-0.8255837559700012,-1.2587631940841677,0.1179732605814933,2.995480224609375
1766001268182902300,4.79790234375,-0.8504765033721924,-0.9918153285980223,0.2716057598590851,3.0142607421874996
1766001268201682700,4.8166826171875,0.1330158114433288,-0.4585303664207458,0.2629009187221527,3.0330410156250003
1766001268220463000,4.835463134765625,0.5053378939628601,-0.5257254838943481,0.5235874652862549,3.051821533203125
1766001268239243500,4.854243408203125,0.6411026120185852,-0.6663771271705627,0.7512873411178589,3.070601806640625
