time,seconds_elapsed,z,y,x,t
1766002370226586000,4.221586181640625,-0.9156789779663086,0.9202022552490234,1.0537400245666504,3.117568359375
1766002370245366800,4.24036669921875,0.8180720806121826,0.9029130935668944,2.573446989059448,3.1363488769531256
1766002370264147200,4.259147216796875,4.151690483093262,-2.430609703063965,5.388901710510254,3.1551293945312504
1766002370282927900,4.277927978515625,-2.2377166748046875,-3.4479541778564453,0.9951659440994264,3.1739101562500003
1766002370301708300,4.296708251953125,-0.8131990432739258,-3.270965099334717,0.1551434993743896,3.1926904296875
1766002370320489000,4.315489013671875,-0.8777985572814941,-2.0799193382263184,1.962833285331726,3.21147119140625
1766002370339269400,4.334269287109375,0.2023487091064453,2.216105461120605,-0.4098843336105346,3.2302514648437506
1766002370358050000,4.353050048828125,1.740544080734253,2.650267601013184,-4.236021995544434,3.2490322265625005
1766002370376830500,4.37183056640625,2.140975952148437,-0.2370262145996093,-3.9829466342926025,3.2678127441406253
1766002370395611100,4.390611083984375,0.2456259727478027,-1.979190826416016,-0.8011527061462402,3.28659326171875
1766002370414391600,4.4093916015625,-0.2858457565307617,-1.013920783996582,0.2682275772094726,3.305373779296875
1766002370433172200,4.428172119140625,-1.073833465576172,0.8475570678710938,0.2806416451931,3.3241542968750006
1766002370451952600,4.44695263671875,-1.863666534423828,2.454697608947754,0.596693754196167,3.3429348144531255
1766002370470733300,4.4657333984375,-1.778409481048584,2.379153251647949,-0.0023010522127151,3.3617155761718753
1766002370489513700,4.484513671875,-1.2240514755249023,1.1125144958496094,-1.5107502937316897,3.380495849609375
1766002370508294400,4.50329443359375,-0.739804744720459,0.280980110168457,-1.6313167810440063,3.399276611328125
1766002370527074800,4.52207470703125,-0.6584229469299316,0.2929162979125976,-0.6744334697723389,3.4180568847656256
1766002370545855500,4.54085546875,-0.6879281997680664,0.5228786468505859,0.4069300293922424,3.4368376464843755
1766002370574026200,4.569026123046875,1.177448272705078,0.5674457550048828,1.039337158203125,3.46500830078125
1766002370592807000,4.587806884765625,2.476886987686157,-2.8883228302001958,3.039003372192383,3.4837890625
1766002370611587300,4.60658740234375,-1.6224513053894043,-2.0317578315734863,-1.118987798690796,3.502569580078125
1766002370630368000,4.625367919921875,-0.4546322822570801,-3.637308120727539,1.3014342784881592,3.5213500976562506
1766002370649148400,4.6441484375,-0.6194925308227539,-2.186917781829834,3.575016021728516,3.5401306152343754
1766002370667928800,4.6629287109375,0.0739064216613769,1.313642501831055,0.8370779156684875,3.558910888671875
1766002370686709500,4.68170947265625,1.014394998550415,1.7348604202270508,-3.422981739044189,3.577691650390625
1766002370714880300,4.70988037109375,0.9940123558044434,-1.5896263122558594,-2.1865453720092773,3.605862548828125
1766002370733661000,4.728660888671875,0.0754585266113281,-2.0902042388916016,-0.159437283873558,3.6246430664062506
1766002370752441300,4.74744140625,-0.791405200958252,-0.4822888374328613,-0.199370339512825,3.6434235839843754
1766002370771222000,4.766221923828125,-1.374183177947998,1.2764430046081543,0.2573124468326568,3.6622041015625
1766002370790002400,4.78500244140625,-1.555438995361328,1.9355449676513672,1.020576000213623,3.680984619140625
1766002370808783000,4.803783203125,-1.3430891036987305,1.5704054832458496,-0.1394428163766861,3.699765380859375
1766002370827563500,4.8225634765625,-0.7934274673461914,0.8535060882568359,-1.802406311035156,3.7185456542968756
1766002370846344200,4.84134423828125,-0.3840546607971191,0.4399499893188476,-1.9913800954818728,3.7373264160156254
1766002370865124600,4.86012451171875,-0.3436288833618164,0.5696334838867188,-1.4460961818695068,3.756106689453125
1766002370883905300,4.8789052734375,-0.7538509368896484,0.7527055740356445,-0.9862622022628784,3.774887451171875
1766002370902685700,4.897685791015625,-0.9273457527160645,0.8363466262817383,-0.1304266452789306,3.79366796875
1766002370921466400,4.91646630859375,-1.3615469932556152,1.0651006698608398,1.1649401187896729,3.8124484863281256
1766002370940246800,4.935246826171875,3.8094210624694815,-0.4187774658203125,4.302052021026611,3.8312290039062504
1766002370959027500,4.95402734375,-1.1300294399261477,-3.8686423301696777,3.187227725982666,3.8500095214843753
1766002370977808000,4.972807861328125,-0.0159182548522949,-2.3884472846984863,-0.0288828611373901,3.8687900390625
1766002370996588500,4.991588623046875,-0.6878929138183594,-3.2448439598083496,1.9655301570892332,3.88757080078125
1766002371015369000,5.010368896484375,0.0883913040161132,0.1917266845703125,1.1727946996688845,3.9063510742187506
1766002371034149600,5.029149658203125,1.244020938873291,2.3335418701171875,-2.652661800384521,3.9251318359375005
1766002371052930000,5.047929931640625,2.082114219665528,0.943516731262207,-4.497684955596924,3.9439121093750003
1766002371071710700,5.066710693359375,1.0922894477844238,-1.3349647521972656,-1.2136483192443848,3.96269287109375
1766002371090491100,5.0854912109375,0.0142078399658203,-1.596759796142578,1.068282127380371,3.981473388671875
1766002371109271800,5.104271728515625,-0.8033885955810547,-0.1230716705322265,0.4495345056056976,4.00025390625
1766002371128052200,5.12305224609375,-1.448026180267334,1.4453420639038086,0.4242187440395355,4.019034423828126
1766002371146833000,5.1418330078125,-1.0585908889770508,1.8140888214111328,1.3152824640274048,4.037815185546876
1766002371165613300,5.16061328125,-0.5940780639648438,1.1340951919555664,0.4222375154495239,4.056595458984376
1766002371184394000,5.17939404296875,-0.3888449668884277,0.4034337997436523,-1.414149284362793,4.075376220703125
1766002371212564700,5.207564697265625,-0.0589776039123535,-0.0128517150878906,-1.591064453125,4.103546875000001
1766002371231345400,5.226345458984375,-0.3057560920715332,0.1812801361083984,-0.8562349081039429,4.122327636718751
1766002371250125800,5.245125732421875,-0.6869821548461914,0.5672140121459961,-0.3200333416461944,4.141107910156251
1766002371268906500,5.263906494140625,-0.98541259765625,0.6956453323364258,0.3622426390647888,4.1598886718750006
1766002371287687000,5.28268701171875,-1.222214698791504,0.8719892501831055,1.121934413909912,4.1786691894531245
1766002371306467600,5.301467529296875,3.2246739864349365,0.0133352279663085,3.2587716579437256,4.19744970703125
1766002371325248000,5.320248046875,0.0601758956909179,-3.221077442169189,3.778398513793945,4.216230224609376
1766002371344028700,5.339028564453125,-0.6027307510375977,-1.2349638938903809,-0.6486172080039978,4.2350107421875
1766002371362809000,5.35780908203125,-0.303138256072998,-1.538210391998291,0.3887768089771271,4.2537912597656256
1766002371381589800,5.37658984375,0.0652961730957031,0.5692682266235352,0.4959926605224609,4.272572021484375
1766002371400370200,5.3953701171875,1.0322039127349854,2.017512321472168,-2.1988837718963623,4.291352294921875
1766002371419150800,5.41415087890625,1.864664077758789,0.8789291381835938,-3.959288120269776,4.310133056640625
1766002371447321600,5.442321533203125,0.6263337135314941,-1.0415887832641602,0.1975553333759308,4.338303710937501
1766002371466102000,5.46110205078125,-0.1515936851501464,-0.926687717437744,1.5470892190933228,4.357084228515625
1766002371484882700,5.479882568359375,-0.7159156799316406,0.119206428527832,0.9306708574295044,4.37586474609375
1766002371503663000,5.4986630859375,-0.8974666595458984,1.159223556518555,0.5864202976226807,4.394645263671876
1766002371531834000,5.526834228515625,-0.7817316055297852,1.5332040786743164,-0.1099758446216583,4.42281640625
1766002371550614500,5.545614501953125,-0.5570697784423828,0.731410026550293,-1.7159885168075562,4.4415966796875
1766002371569395200,5.564395263671875,-0.4897274971008301,0.0641555786132812,-2.316831111907959,4.46037744140625
1766002371597566000,5.59256591796875,-0.6470208168029785,0.0925970077514648,-1.2944743633270264,4.488548095703125
1766002371616346400,5.611346435546875,-0.946044921875,0.2677679061889648,-0.4182531237602234,4.507328613281251
1766002371635127000,5.630126953125,-1.1617331504821775,0.4774446487426758,0.5486685037612915,4.526109130859375
1766002371653907500,5.648907470703125,-0.2992591857910156,0.7843236923217773,1.5175378322601318,4.5448896484375005
1766002371672688000,5.667688232421875,3.629781723022461,-2.313399314880371,4.598906517028809,4.56367041015625
1766002371691468800,5.68646875,-3.0852787494659424,-2.736464023590088,0.7294673919677734,4.582450927734376
1766002371710249200,5.705249267578125,-1.3599541187286377,-2.3075380325317383,-0.4235972166061401,4.6012314453125
1766002371729030000,5.72402978515625,-1.0572266578674316,-1.8372697830200195,1.9852895736694336,4.620011962890626
1766002371747810300,5.742810302734375,-0.5510835647583008,0.5123825073242188,0.1771568953990936,4.63879248046875
1766002371766591000,5.761591064453125,0.7135756015777588,0.6038646697998047,-3.4705123901367188,4.6575732421875
1766002371785371400,5.780371337890625,2.035214424133301,-0.6446447372436523,-4.0289459228515625,4.676353515625001
1766002371804152000,5.799152099609375,0.9529149532318116,-2.1131725311279297,-0.4112655520439148,4.695134277343751
1766002371822932500,5.817932373046875,-0.0341877937316894,-2.6206274032592773,1.5928634405136108,4.713914550781251
1766002371851103200,5.846103271484375,-1.3399944305419922,-0.7113680839538574,0.7470008730888367,4.7420854492187505
1766002371869884000,5.8648837890625,-1.5249528884887695,0.7999849319458008,1.107860803604126,4.7608659667968745
1766002371888664300,5.883664306640625,-1.2384119033813477,1.1514825820922852,1.184475660324097,4.779646484375
1766002371907445000,5.902445068359375,-0.4349703788757324,0.4093542098999023,-0.0343425273895263,4.79842724609375
1766002371926225700,5.9212255859375,0.1403169631958007,-0.2193880081176757,-1.1284455060958862,4.817207763671876
1766002371945006000,5.940006103515625,0.2776298522949219,-0.0985889434814453,-1.3534491062164309,4.83598828125
1766002371963786800,5.958786865234375,0.1422524452209472,0.2490787506103515,-0.9168645143508912,4.85476904296875
1766002371982567200,5.977567138671875,-0.1205940246582031,0.4246110916137695,-0.2636638283729553,4.873549316406251
1766002372001347800,5.996347900390625,-0.2409663200378418,0.1906700134277343,0.4576360285282135,4.892330078125001
1766002372020128300,6.015128173828125,-0.2083563804626464,-0.3562126159667969,1.1328232288360596,4.911110351562501
1766002372038909000,6.033908935546875,-0.0625886917114257,-0.8231239318847656,1.290623664855957,4.929891113281251
1766002372057689300,6.052689453125,-0.1312541961669922,-1.0897021293640137,1.364912748336792,4.948671630859375
1766002372076470000,6.071469970703125,0.3130340576171875,-1.2057867050170898,1.582932472229004,4.9674521484375
1766002372095250400,6.09025048828125,1.0831561088562012,-0.2959556579589844,0.9042596817016602,4.986232666015626
1766002372114031000,6.109031005859375,0.7261908054351807,2.386563301086426,-0.6291843056678772,5.00501318359375
1766002372132811500,6.1278115234375,0.1271781921386718,3.243199348449707,-0.9307821393013,5.023793701171876
1766002372151592200,6.14659228515625,0.1979999542236328,0.7842826843261719,0.2986351549625397,5.0425744628906255
1766002372170372600,6.16537255859375,0.6266360282897949,-0.1471328735351562,-0.0318529605865478,5.061354736328125
1766002372189153300,6.1841533203125,0.9826221466064452,1.7852067947387695,-1.2623497247695925,5.080135498046875
1766002372207933700,6.20293359375,1.1340641975402832,3.612790107727051,-1.8095180988311768,5.098915771484375
1766002372236104700,6.231104736328125,0.5182280540466309,2.055943489074707,-1.1577666997909546,5.127086914062501
1766002372254885000,6.249885009765625,0.1922693252563476,0.5048685073852539,-0.4559433758258819,5.1458671875
1766002372273665800,6.268665771484375,0.1768112182617187,0.1010551452636718,-0.0450632572174072,5.16464794921875
