time,seconds_elapsed,z,y,x,t
1766002368132556800,2.127556884765625,0.1229365393519401,-0.0828485339879989,0.0552069060504436,1.0141486816406249
1766002368151337200,2.146337158203125,0.0684168562293052,-0.0063377222977578,0.0697149410843849,1.032928955078125
1766002368170118000,2.165117919921875,0.0209221187978982,0.1608865112066269,0.0576503649353981,1.051709716796875
1766002368188898300,2.183898193359375,-0.0007635809597559,0.2690095901489258,0.0436004735529422,1.0704899902343747
1766002368207679000,2.202678955078125,-0.0146607551723718,0.2648862302303314,0.0382554084062576,1.089270751953125
1766002368226459400,2.22145947265625,-0.0221438482403755,0.4099666178226471,0.0300087314099073,1.1080512695312499
1766002368245240000,2.240239990234375,-0.067347839474678,0.715246319770813,0.0332157723605632,1.1268317871093747
1766002368264020500,2.2590205078125,-0.2345720827579498,0.942335307598114,0.0721584036946296,1.1456123046875
1766002368282801200,2.27780126953125,-0.4755582213401794,0.9977712631225586,0.0976620092988014,1.1643930664062498
1766002368301581600,2.29658154296875,-0.5937605500221252,0.885219395160675,0.1028543561697006,1.18317333984375
1766002368320362000,2.315362060546875,-0.5387827157974243,0.510606586933136,0.127594381570816,1.2019538574218749
1766002368339142700,2.334142578125,-0.4315759539604187,0.0261908266693353,0.1821140646934509,1.2207343749999997
1766002368357923000,2.352923095703125,-0.3652971386909485,-0.2826013267040252,0.2774089574813843,1.239514892578125
1766002368376703700,2.371703857421875,-0.3646862804889679,-0.2940550446510315,0.4628064334392547,1.2582956542968748
1766002368395484200,2.390484130859375,-0.4268417656421661,-0.1085048541426658,0.6601157784461975,1.277075927734375
1766002368414264800,2.409264892578125,-0.4688387215137481,0.1471420526504516,0.792978823184967,1.295856689453125
1766002368433045200,2.428045166015625,-0.4880809485912323,0.4119519293308258,0.821384072303772,1.3146369628906247
1766002368451826000,2.446825927734375,-0.5809323787689209,0.6109411120414734,0.7715985774993896,1.333417724609375
1766002368470606300,2.4656064453125,-0.7368556261062622,0.7876337766647339,0.5984184145927429,1.3521982421874998
1766002368489386800,2.48438671875,-0.8581122756004333,0.830547034740448,0.3007745444774627,1.370978515625
1766002368508167400,2.50316748046875,-0.8822414875030518,0.7499128580093384,-0.0672714859247207,1.38975927734375
1766002368526947800,2.52194775390625,-0.8323032855987549,0.5316814184188843,-0.558254063129425,1.4085395507812497
1766002368545728500,2.540728515625,-0.7660244107246399,0.2558759748935699,-1.0971895456314087,1.4273203125
1766002368564509000,2.559509033203125,-0.78648841381073,-0.0025198173243552,-1.6451351642608645,1.4461008300781248
1766002368583289600,2.57828955078125,-0.8445205688476562,-0.1671478748321533,-2.1967461109161377,1.46488134765625
1766002368602070000,2.597070068359375,-0.8341358304023743,-0.1136972084641456,-2.680856466293335,1.483661865234375
1766002368620850700,2.6158505859375,-0.8860593438148499,0.2561814188957214,-2.965824842453003,1.5024423828124998
1766002368639631000,2.634631103515625,-1.0607666969299316,0.3061196208000183,-2.9000041484832764,1.521222900390625
1766002368658411800,2.653411865234375,-1.3935352563858032,0.4915170669555664,-0.3432296514511108,1.540003662109375
1766002368677192200,2.672192138671875,-0.5166388750076294,-0.4866301417350769,1.9175808429718015,1.558783935546875
1766002368695972900,2.690972900390625,0.9657772183418274,0.7489965558052063,1.885815978050232,1.577564697265625
1766002368714753300,2.709753173828125,0.7649554014205933,1.313130259513855,1.531361699104309,1.5963449707031248
1766002368733533700,2.72853369140625,0.2278525680303573,0.9637155532836914,1.2482258081436155,1.61512548828125
1766002368752314400,2.747314453125,0.2006690800189972,0.8626174330711365,0.797713041305542,1.63390625
1766002368771094800,2.7660947265625,0.2692386507987976,0.106824979186058,0.4602102637290954,1.6526865234375
1766002368789875500,2.78487548828125,-0.0021380267571657,-0.6848557591438293,0.1398116797208786,1.67146728515625
1766002368808656000,2.80365576171875,-0.2304487377405166,-1.0793217420578003,-0.2242637276649475,1.6902475585937498
1766002368827436500,2.8224365234375,-0.2712239623069763,-1.3087013959884644,-0.705472469329834,1.7090283203125
1766002368846217000,2.841217041015625,-0.3550651669502258,-0.912708342075348,-1.4644719362258911,1.727808837890625
1766002368864997600,2.85999755859375,-0.5763509273529053,0.0449749194085598,-2.225304126739502,1.7465893554687497
1766002368893168400,2.88816845703125,-0.9303470849990844,1.088637351989746,-1.787924885749817,1.77476025390625
1766002368911948800,2.90694873046875,-0.916602611541748,0.0800996422767639,0.9437097311019896,1.7935405273437497
1766002368930729500,2.9257294921875,0.5775726437568665,-0.0391717031598091,1.2984694242477417,1.8123212890625
1766002368949510000,2.944510009765625,1.1016945838928225,0.5261836647987366,1.198593020439148,1.8311018066406248
1766002368968290600,2.96329052734375,0.7573196291923523,0.2864192128181457,1.14422607421875,1.84988232421875
1766002368987071000,2.982071044921875,0.6323977708816528,-0.0017562361899763,1.1005492210388184,1.868662841796875
1766002369005851600,3.0008515625,0.88285231590271,-0.1738673895597458,0.9815833568572998,1.8874433593749997
1766002369024632000,3.019632080078125,0.9573778510093688,-0.7486911416053772,0.9779181480407716,1.906223876953125
1766002369052802800,3.047802734375,0.4781544208526611,-0.7961859107017517,0.9398918151855468,1.9343945312499997
1766002369071583500,3.06658349609375,0.5905535221099854,-0.7099012136459351,0.8821650743484497,1.95317529296875
1766002369090364000,3.085364013671875,0.8132137656211853,-0.4337903559207916,0.5243510603904724,1.9719558105468749
1766002369109144600,3.10414453125,0.6750055551528931,0.0266489759087562,-0.1367573589086532,1.9907363281249997
1766002369127925000,3.122925048828125,0.2350302189588546,0.2407570779323578,-0.8047379851341248,2.009516845703125
1766002369146705700,3.14170556640625,0.0138971740379929,0.2053269296884536,-1.3303871154785156,2.0282973632812498
1766002369165486000,3.160486083984375,-0.0830776095390319,0.0576503649353981,-1.8048763275146484,2.047077880859375
1766002369184266800,3.179266845703125,-0.3509418070316314,-0.2221257090568542,-2.2856268882751465,2.065858642578125
1766002369212437500,3.2074375,-0.8478803038597107,-0.3737728893756866,-2.765308380126953,2.094029296875
1766002369231218000,3.226218017578125,-0.9720385670661926,0.3725511431694031,-2.501262187957764,2.112809814453125
1766002369249998600,3.24499853515625,-1.1504111289978027,0.6784417033195496,0.5382482409477234,2.1315903320312497
1766002369268779000,3.263779052734375,0.2325867712497711,-0.0176387205719947,1.6455934047698977,2.150370849609375
1766002369287559700,3.2825595703125,1.1679733991622925,1.2085195779800415,1.5619049072265625,2.1691513671875
1766002369306340000,3.301340087890625,0.7185297012329102,1.2147809267044067,1.3545162677764893,2.187931884765625
1766002369325120800,3.320120849609375,0.2359465211629867,0.784426748752594,1.0811543464660645,2.206712646484375
1766002369343901200,3.338901123046875,0.347123920917511,0.2997055351734161,0.9707404971122742,2.2254929199218747
1766002369362681900,3.357681884765625,0.7044798135757446,-0.5200750231742859,1.0900118350982666,2.244273681640625
1766002369381462300,3.376462158203125,0.6334667801856995,-0.8342122435569763,1.1553744077682495,2.263053955078125
1766002369400243000,3.395242919921875,0.6592758297920227,-1.005865216255188,1.0903172492980957,2.281834716796875
1766002369419023400,3.4140234375,0.7035635113716125,-0.880790650844574,0.8146645426750183,2.300615234375
1766002369437804000,3.432803955078125,0.5064069032669067,-0.3852266073226928,0.377285361289978,2.3193957519531248
1766002369456584400,3.45158447265625,0.2215912044048309,-0.0374918244779109,-0.0878881737589836,2.33817626953125
1766002369475365000,3.470365234375,0.1835648715496063,0.1054505333304405,-0.5003746151924133,2.35695703125
1766002369494145500,3.4891455078125,0.1747073233127594,-0.057192213833332,-0.9333250522613524,2.3757373046875
1766002369512926200,3.50792626953125,-0.0398589260876178,-0.3995819091796875,-1.4484367370605469,2.39451806640625
1766002369531706600,3.52670654296875,-0.4101957082748413,-0.733572244644165,-1.9539273977279663,2.4132983398437498
1766002369550487300,3.5454873046875,-0.6183478832244873,-0.83467036485672,-2.3943607807159424,2.4320791015625
1766002369569267700,3.564267822265625,-0.7101303339004517,-0.377743512392044,-2.741790294647217,2.450859619140625
1766002369588048100,3.583048095703125,-0.9300416111946106,0.3027598559856415,-2.2416446208953857,2.469639892578125
1766002369616219100,3.61121923828125,-0.4798342883586883,-0.5300015807151794,1.458516001701355,2.49781103515625
1766002369634999600,3.62999951171875,0.9016364216804504,0.8685733675956726,1.4977641105651855,2.5165913085937497
1766002369653780200,3.6487802734375,0.8242093324661255,1.3733004331588743,1.1706459522247314,2.5353720703125
1766002369672560600,3.667560546875,0.3031416535377502,0.9574542045593262,0.8809433579444885,2.5541523437499998
1766002369691341300,3.68634130859375,0.1475238502025604,0.399887353181839,0.7674752473831177,2.57293310546875
1766002369710121700,3.705121826171875,0.4731147587299347,-0.5749000906944275,0.8969785571098328,2.591713623046875
1766002369728902400,3.72390234375,0.5604684352874756,-1.0599267482757568,1.0258710384368896,2.6104941406249997
1766002369747682800,3.742682861328125,0.4755582213401794,-1.0784053802490234,0.9908990263938904,2.629274658203125
1766002369766463500,3.76146337890625,0.4092794060707092,-0.6485093235969543,0.7531198859214783,2.64805517578125
1766002369785244000,3.780243896484375,0.2426660358905792,0.0674242004752159,0.3406334817409515,2.666835693359375
1766002369804024600,3.799024658203125,0.0238237269222736,0.4822013974189758,-0.0895680487155914,2.685616455078125
1766002369822805000,3.817804931640625,0.0282524954527616,0.3785070776939392,-0.4402044415473938,2.7043967285156247
1766002369841585400,3.83658544921875,0.0923933014273643,-0.075670875608921,-0.8161917328834534,2.72317724609375
1766002369860366000,3.855365966796875,-0.0413860902190208,-0.617660641670227,-1.2734240293502808,2.741957763671875
1766002369879146500,3.874146484375,-0.3269653618335724,-0.9742529392242432,-1.7500512599945068,2.76073828125
1766002369907317500,3.9023173828125,-0.5442805290222168,-0.7273108959197998,-2.305938243865967,2.7889091796875
1766002369935488300,3.93048828125,-0.8643736839294434,0.1463784724473953,-0.4734965562820434,2.817080078125
1766002369954269000,3.94926904296875,-0.2553414702415466,-0.4996110200881958,1.3810888528823853,2.83586083984375
1766002369973049300,3.96804931640625,0.9214895367622375,0.6199513673782349,1.342604398727417,2.8546411132812497
1766002369991829800,3.986829833984375,0.7449495792388916,1.3061052560806274,1.0915390253067017,2.873421630859375
1766002370010610400,4.0056103515625,0.2553414702415466,1.0128902196884155,0.8676570653915405,2.8922021484375
1766002370029390800,4.024390869140625,0.1988364905118942,0.5432878732681274,0.7357102632522583,2.9109826660156246
1766002370048171500,4.043171630859375,0.6717985272407532,-0.3281107544898987,0.8053488731384277,2.9297634277343745
1766002370066952000,4.061951904296875,0.7053961157798767,-0.9770018458366394,0.922176718711853,2.948543701171875
1766002370085732600,4.080732666015625,0.4659371078014374,-1.098105788230896,0.9618829488754272,2.967324462890625
1766002370104513000,4.099512939453125,0.531605064868927,-0.9182060956954956,0.7893136739730835,2.986104736328125
1766002370123293700,4.118293701171875,0.568562388420105,-0.3476584255695343,0.3698022663593292,3.0048854980468747
1766002370142074000,4.13707421875,0.2976438701152801,0.1471420526504516,-0.1895971596240997,3.0236660156249995
1766002370179635000,4.174635009765625,-0.0061086476780474,-0.0965929925441742,-1.2315797805786133,3.0612268066406245
