time,seconds_elapsed,z,y,x,t
1766002372292446200,6.2874462890625,0.1008071899414062,0.013345718383789,-0.034063309431076,5.183428466796876
1766002372311227000,6.306226806640625,0.0492963790893554,-0.3904933929443359,-0.108652263879776,5.202208984375
1766002372330007300,6.32500732421875,-0.0502982139587402,-0.724210262298584,0.0219711363315582,5.220989501953126
1766002372348788000,6.3437880859375,-0.0772790908813476,-0.7506465911865234,0.0967759191989898,5.2397702636718755
1766002372367568400,6.362568359375,-0.0583767890930175,-0.6191482543945312,0.1585738062858581,5.258550537109375
1766002372386349000,6.38134912109375,0.105560302734375,-0.4494466781616211,0.2438884377479553,5.277331298828125
1766002372405129500,6.40012939453125,0.1346011161804199,-0.2454357147216797,0.3653466701507568,5.296111572265625
1766002372423910100,6.41891015625,0.1582708358764648,-0.0137863159179687,0.3898816108703613,5.314892333984375
1766002372442690600,6.437690673828125,0.2191386222839355,0.1929054260253906,0.2991821467876434,5.3336728515625005
1766002372461471200,6.45647119140625,0.2330904006958007,0.3161096572875976,0.1214992254972457,5.352453369140624
1766002372480252000,6.475251953125,0.1769547462463379,0.2792186737060547,0.019777238368988,5.371234130859376
1766002372499032300,6.4940322265625,0.1102528572082519,0.1787662506103515,-0.0116746425628662,5.390014404296876
1766002372517813000,6.51281298828125,0.0505414009094238,0.1677742004394531,-0.0167754292488098,5.408795166015626
1766002372536593400,6.531593505859375,0.0366969108581543,0.1799154281616211,-0.0019208490848541,5.42757568359375
1766002372555374000,6.5503740234375,0.01127290725708,0.1841354370117187,0.0054982751607894,5.446356201171875
1766002372574154500,6.569154541015625,0.0313477516174316,0.201268196105957,-0.1053746491670608,5.465136718750001
1766002372592935200,6.58793505859375,0.052563190460205,0.1727313995361328,-0.1764755696058273,5.483917236328125
1766002372611715600,6.606715576171875,0.1225318908691406,0.0740089416503906,-0.1547675430774688,5.502697753906251
1766002372630496300,6.625496337890625,0.1068716049194336,-0.007796287536621,-0.0019843280315399,5.521478515625001
1766002372649276700,6.644276611328125,0.04083251953125,-0.0666694641113281,0.1843948662281036,5.5402587890625
1766002372668057300,6.663057373046875,-0.0213484764099121,-0.0951347351074218,0.2954828143119812,5.55903955078125
1766002372686837800,6.681837646484375,-0.0554609298706054,-0.1117391586303711,0.2460546493530273,5.57781982421875
1766002372705618400,6.700618408203125,-0.0846719741821289,-0.0661125183105468,0.1791717857122421,5.5966005859375
1766002372724398800,6.71939892578125,-0.1113834381103515,0.0005302429199218,0.0719830691814422,5.615381103515626
1766002372743179500,6.738179443359375,-0.063913345336914,0.0462226867675781,-0.0929279774427414,5.6341616210937495
1766002372761960200,6.756960205078125,-0.0556402206420898,0.0258340835571289,-0.1568977981805801,5.652942382812499
1766002372780740600,6.77574072265625,-0.045724868774414,-0.0148639678955078,-0.1551005095243454,5.671722900390625
1766002372808911400,6.803911376953125,0.0131392478942871,-0.0245208740234375,-0.1015024632215499,5.699893554687501
1766002372827692000,6.822692138671875,0.0557732582092285,-0.040811538696289,-0.0434745252132415,5.718674316406251
1766002372846472400,6.841472412109375,0.0268874168395996,-0.0379056930541992,0.0073702484369277,5.73745458984375
1766002372865253000,6.860253173828125,-0.0104904174804687,0.0333499908447265,0.0607736557722091,5.7562353515625
1766002372884033500,6.879033447265625,-0.0482363700866699,0.0464544296264648,0.1374022513628006,5.775015625
1766002372902814200,6.897814208984375,-0.0516409873962402,0.0444927215576171,0.1048120856285095,5.79379638671875
1766002372921595000,6.916594970703125,0.0064892768859863,0.0699234008789062,0.002430573105812,5.8125771484375
1766002372940375300,6.935375244140625,0.0548982620239257,0.045079231262207,-0.0870604366064071,5.8313574218749995
1766002372959156000,6.954156005859375,0.0872988700866699,0.0492620468139648,-0.162999078631401,5.850138183593751
1766002372977936400,6.972936279296875,0.109105110168457,0.0635824203491211,-0.2034175246953964,5.868918457031251
1766002372996717000,6.991717041015625,-0.0062108039855957,0.1337862014770507,-0.0488252341747283,5.887699218750001
1766002373015497500,7.01049755859375,-0.0371842384338378,0.1476144790649414,0.1384615451097488,5.906479736328125
1766002373034278100,7.029278076171875,-0.1023850440979003,0.0688810348510742,0.1684552729129791,5.92526025390625
1766002373053058600,7.04805859375,-0.1478586196899414,0.0001049041748046,0.0310463309288024,5.944040771484376
1766002373071839200,7.066839111328125,-0.1868171691894531,-0.0076360702514648,-0.0214650183916091,5.9628212890625
1766002373090619600,7.08561962890625,-0.1719245910644531,0.0241098403930664,-0.0235305279493331,5.981601806640626
1766002373109400300,7.104400390625,-0.1336331367492675,-0.0047264099121093,-0.0273647159337997,6.000382568359376
1766002373128180700,7.1231806640625,-0.1233148574829101,-0.043614387512207,0.0200160443782806,6.019162841796875
1766002373146961400,7.14196142578125,-0.1053872108459472,-0.1076107025146484,0.0168201178312301,6.037943603515625
1766002373165741800,7.160741943359375,-0.1014056205749511,-0.1426944732666015,-0.0013544559478759,6.056724121093751
1766002373184522500,7.1795224609375,-0.0623273849487304,-0.0795345306396484,-0.0253076702356338,6.075504638671875
1766002373203303000,7.198302978515625,-0.0953202247619628,-0.0374774932861328,0.0239368379116058,6.094285156250001
1766002373222083600,7.21708349609375,-0.0843391418457031,-0.006505012512207,-0.0040513426065444,6.113065673828125
1766002373240864300,7.2358642578125,0.0169000625610351,0.0521173477172851,-0.1290406882762909,6.1318464355468745
1766002373259644700,7.254644775390625,0.1310958862304687,0.0845985412597656,-0.2708949446678161,6.150626953125
1766002373278425300,7.27342529296875,0.1762771606445312,0.0897254943847656,-0.222070962190628,6.169407470703126
1766002373297205800,7.292205810546875,0.1697373390197754,0.1131563186645507,-0.0864961296319961,6.18818798828125
1766002373315986400,7.310986328125,0.1618895530700683,0.1365232467651367,0.0316018164157867,6.2069685058593755
1766002373334766800,7.329766845703125,0.1397132873535156,0.1103849411010742,0.081291377544403,6.2257490234374995
1766002373353547500,7.348547607421875,0.1404690742492675,0.0936870574951171,0.0999220237135887,6.244529785156251
1766002373372328000,7.367327880859375,0.1898689270019531,0.1419334411621093,0.0642539113759994,6.263310058593751
1766002373391108600,7.386108642578125,0.219301700592041,0.0746736526489257,0.0541080832481384,6.282090820312501
1766002373409889000,7.404888916015625,0.2302474975585937,0.0008811950683593,0.0565556287765502,6.3008710937500005
1766002373428669700,7.423669677734375,0.2362861633300781,0.0297985076904296,0.0441083163022995,6.31965185546875
1766002373447450000,7.4424501953125,0.2270116806030273,0.0258617401123046,0.0917801707983017,6.338432373046876
1766002373466230800,7.461230712890625,0.1028127670288086,0.0165796279907226,0.1424551755189895,6.357212890625
1766002373485011500,7.480011474609375,0.0695910453796386,0.0766248703002929,0.0630088150501251,6.37599365234375
1766002373503791900,7.4987919921875,0.1139998435974121,0.0070066452026367,-0.0549026727676391,6.394774169921876
1766002373522572500,7.517572509765625,-0.0265083312988281,-0.1877326965332031,-0.0859908461570739,6.4135546875
1766002373541353000,7.53635302734375,-0.106269359588623,-0.2169885635375976,-0.079673558473587,6.432335205078125
1766002373560133600,7.555133544921875,-0.1799616813659668,-0.2111644744873047,-0.0847944915294647,6.451115722656251
1766002373578914000,7.5739140625,-0.2158131599426269,-0.1781435012817382,-0.0941284894943237,6.469896240234375
1766002373597694700,7.59269482421875,-0.0960969924926757,-0.0759038925170898,-0.1373817473649978,6.488677001953125
1766002373616475100,7.61147509765625,-0.0012431144714355,-0.0372266769409179,-0.1616002321243286,6.507457275390625
1766002373635255800,7.630255859375,0.0589146614074707,-0.0037364959716796,-0.2244058400392532,6.5262380371093744
1766002373654036200,7.6490361328125,0.1158576011657714,0.0162334442138671,-0.1767604798078537,6.545018310546876
1766002373672817000,7.66781689453125,0.0690069198608398,0.060072898864746,-0.0771634131669998,6.563799072265626
1766002373691597300,7.686597412109375,-0.0075573921203613,0.061751365661621,-0.0471788495779037,6.58257958984375
1766002373710378000,7.7053779296875,-0.0422801971435546,0.0866651535034179,-0.062767744064331,6.6013601074218755
1766002373729158400,7.724158447265625,-0.0417313575744628,0.0833272933959961,0.0464207679033279,6.6201406249999994
1766002373747939000,7.74293896484375,0.0743961334228515,0.1012868881225586,0.057798832654953,6.638921142578125
1766002373766719500,7.761719482421875,0.0916523933410644,0.05035400390625,0.0035395622253417,6.657701660156251
1766002373785500200,7.780500244140625,0.2892742156982422,0.05035400390625,0.0035395622253417,6.676482421875001
1766002373804280800,7.79928076171875,0.3670668601989746,-0.21875667572021484,-0.542586088180542,6.695262939453125
1766002373823061200,7.818061279296875,0.1000466346740722,-0.4878673553466797,-0.973045825958252,6.71404345703125
1766002373841842000,7.836842041015625,-0.3460803031921386,0.2803153991699219,-0.542586088180542,6.73282421875
1766002373860622300,7.855622314453125,0.3593869209289551,1.0484981536865234,-0.591172993183136,6.7516044921875
1766002373879403000,7.874403076171875,0.1523718833923339,-0.0382204055786132,0.77342289686203,6.77038525390625
1766002373898183400,7.893183349609375,-0.0107712745666503,-0.3421792984008789,-0.63975989818573,6.78916552734375
1766002373916964000,7.911964111328125,0.4971988201141357,-0.0382204055786132,0.3984995484352112,6.8079462890624995
1766002373935744500,7.93074462890625,0.1701741218566894,0.1641788482666015,-0.1692905128002166,6.826726806640625
1766002373954525200,7.949525146484375,-0.0289454460144042,-0.2153844833374023,-0.0171844214200973,6.845507324218751
1766002373973305600,7.9683056640625,-0.0284538269042968,-0.3392782211303711,0.4617502093315124,6.864287841796875
1766002373992086300,7.987086181640625,-0.163550853729248,-0.3715715408325195,0.3466676771640777,6.883068359375001
1766002374010867000,8.005866943359376,-0.2235398292541504,-0.3615255355834961,0.1684689968824386,6.9018491210937505
1766002374029647400,8.0246474609375,-0.1480684280395507,-0.2283306121826172,0.0829510241746902,6.920629638671874
1766002374048428000,8.043427978515625,-0.0848193168640136,-0.0456619262695312,0.0774218291044235,6.93941015625
1766002374067208400,8.06220849609375,-0.083984375,0.0741310119628906,-0.0031370818614959,6.958190673828124
1766002374085989000,8.080989013671875,0.0162763595581054,0.1697216033935547,-0.0768061429262161,6.97697119140625
1766002374104769500,8.09976953125,0.0039224624633789,0.2129364013671875,-0.1789998263120651,6.9957517089843755
1766002374123550200,8.11855029296875,0.0112452507019042,0.1992073059082031,-0.2152463793754577,7.014532470703125
1766002374142331000,8.137330810546874,0.0095853805541992,0.1164302825927734,-0.2150636911392212,7.033312988281249
1766002374161111300,8.156111328125,-0.0342388153076171,0.0207462310791015,-0.1593635082244873,7.052093505859375
1766002374179892000,8.17489208984375,-0.0953841209411621,-0.0739870071411132,-0.0831765234470367,7.070874267578125
1766002374198672400,8.19367236328125,-0.1657547950744629,-0.1651678085327148,0.0041268169879913,7.089654541015625
1766002374217453000,8.212453125,-0.195345401763916,-0.2005252838134765,0.059899628162384,7.1084353027343745
1766002374236233500,8.2312333984375,-0.1332345008850097,-0.2191848754882812,0.0531237721443176,7.127215576171874
1766002374255014100,8.25001416015625,-0.3249721527099609,-0.4050483703613281,-0.2556628286838531,7.145996337890624
1766002374273794600,8.268794677734375,-0.06663179397583,-0.1130485534667968,0.5329775810241699,7.16477685546875
