time,seconds_elapsed,z,y,x,t
1766002382462124500,16.45712451171875,0.5778560638427734,0.0317549705505371,0.0013496875762939,15.353106689453124
1766002382480905000,16.475905029296875,0.7002830505371094,-0.5855400562286377,-0.099433422088623,15.37188720703125
1766002382499685600,16.494685546875,0.8671970367431641,-0.7716238498687744,-0.1567934155464172,15.390667724609376
1766002382518466300,16.51346630859375,0.7075977325439453,-0.8457138538360596,-0.2161590456962585,15.409448486328124
1766002382537246700,16.532246826171875,0.5800981521606445,-0.594596266746521,-0.0712807774543762,15.42822900390625
1766002382556027400,16.55102734375,0.2905254364013672,-0.5093774795532227,0.1458739042282104,15.447009521484375
1766002382574808000,16.56980810546875,-0.0285987854003906,-0.1553699970245361,0.0567350387573242,15.465790283203123
1766002382593588500,16.58858837890625,-0.3337287902832031,0.3950386047363281,0.1841278076171875,15.484570556640623
1766002382612369200,16.607369140625,-0.4769372940063476,-0.6495224237442017,-0.2067546844482422,15.503351318359375
1766002382631149800,16.62614990234375,-0.4777441024780273,-0.4702610969543457,0.238483190536499,15.522132080078126
1766002382649930200,16.64493017578125,-0.4128618240356445,-0.4139535427093506,0.3599068522453308,15.540912353515626
1766002382668711000,16.6637109375,-0.5130596160888672,0.0406820774078369,0.575214684009552,15.559693115234374
1766002382687491600,16.68249169921875,-0.5440349578857422,1.2748425006866455,1.129757285118103,15.578473876953126
1766002382706272000,16.70127197265625,-1.0204401016235352,1.7253165245056152,0.7667574286460876,15.597254150390626
1766002382725052700,16.720052734375,-0.7318181991577148,1.922540664672852,0.6911846399307251,15.616034912109374
1766002382743833300,16.738833251953125,-0.7020902633666992,1.1585147380828855,0.5389773845672607,15.6348154296875
1766002382762613800,16.75761376953125,-1.1853361129760742,1.5179059505462646,0.235783576965332,15.653595947265625
1766002382781394400,16.77639453125,-0.938227653503418,4.576354026794434,0.4453713893890381,15.672376708984373
1766002382800175000,16.795175048828124,-0.1387500762939453,3.047129988670349,1.708651065826416,15.691157226562499
1766002382818955800,16.813955810546876,-1.8369083404541016,4.5432517528533936,0.9437391757965088,15.70993798828125
1766002382837736200,16.832736083984376,1.006155014038086,2.5623899102211,2.2051963806152344,15.72871826171875
1766002382856516900,16.851516845703124,0.9725770950317384,4.5101494789123535,1.9832165241241453,15.747499023437499
1766002382875297500,16.870297607421875,0.8505868911743164,0.6146303415298462,1.3185105323791504,15.76627978515625
1766002382894078000,16.889077880859375,1.3497095108032229,-1.9994728565216064,1.0562257766723633,15.78506005859375
1766002382912858600,16.907858642578127,2.0130510330200195,-3.908922910690308,0.7438573837280273,15.803840820312502
1766002382931639300,16.926639404296875,0.8634252548217773,-5.78928279876709,-0.7228453159332275,15.82262158203125
1766002382950419700,16.945419677734375,1.411961555480957,-5.9832305908203125,-1.4058799743652344,15.84140185546875
1766002382969200400,16.964200439453126,0.7280673980712891,-5.238654136657715,-1.5074357986450195,15.860182617187501
1766002382987981000,16.98298095703125,-0.5715723037719727,-4.398868083953857,-1.3399906158447266,15.878963134765623
1766002383006761700,17.00176171875,-1.3541302680969238,-2.211132287979126,-1.206329107284546,15.897743896484375
1766002383025542100,17.020542236328126,-1.538074016571045,-0.5781395435333252,-1.0411717891693115,15.9165244140625
1766002383044322800,17.03932275390625,-1.920783519744873,0.8577971458435059,-1.0844686031341553,15.935304931640626
1766002383063103500,17.058103515625,-1.9535737037658687,1.8502302169799805,-1.2514503002166748,15.954085693359374
1766002383081884000,17.0768837890625,-1.8135986328125,2.3218064308166504,-1.2893271446228027,15.972865966796874
1766002383100664600,17.09566455078125,-1.2405805587768557,2.99565863609314,-1.2531356811523438,15.991646728515626
1766002383119445200,17.1144453125,-0.3925657272338867,1.3662188053131104,-0.6420788764953613,16.010427490234374
1766002383138225700,17.1332255859375,0.8710002899169922,1.1838970184326172,-0.6251509189605713,16.029207763671874
1766002383157006300,17.15200634765625,1.6653661727905271,0.3863139152526855,-0.5735945701599121,16.047988525390625
1766002383175787000,17.170787109375,1.852339744567871,-0.2101285457611084,-0.4336726665496826,16.066769287109373
1766002383194567700,17.189567626953124,1.4429292678833008,-0.5963950157165527,-0.5939822196960449,16.0855498046875
1766002383213348000,17.20834814453125,1.2923250198364258,-1.1677310466766355,-0.943274736404419,16.104330322265625
1766002383232128800,17.227128662109376,1.0598878860473633,-1.490156650543213,-1.239877223968506,16.12311083984375
1766002383250909400,17.245909423828124,1.8319950103759768,-2.049553871154785,-1.4762439727783203,16.1418916015625
1766002383269689900,17.26468994140625,2.169658660888672,-2.735507011413574,-1.5036094188690186,16.160672119140624
1766002383288470500,17.283470458984375,2.1384220123291016,-3.286986351013184,-1.5007741451263428,16.17945263671875
1766002383307251200,17.302251220703123,2.322471618652344,-3.488529682159424,-1.224714994430542,16.198233398437498
1766002383326032000,17.321031982421875,2.37795639038086,-3.4920096397399902,-0.9212357997894288,16.21701416015625
1766002383344812300,17.339812255859375,1.9530267715454104,-3.272456645965576,-0.5566713809967041,16.23579443359375
1766002383363593000,17.358593017578126,1.4372920989990234,-2.712005615234375,-0.316143274307251,16.2545751953125
1766002383382373600,17.37737353515625,0.9093456268310548,-2.221488237380981,-0.2083091735839843,16.273355712890623
1766002383401154000,17.396154052734374,0.2899484634399414,-1.6685051918029783,-0.2121622562408447,16.29213623046875
1766002383419934700,17.414934814453126,0.0689516067504882,-1.279979228973389,-0.1564080715179443,16.3109169921875
1766002383457495800,17.452495849609374,-0.4803333282470703,-1.0136821269989014,0.0712888240814209,16.34847802734375
1766002383476276500,17.4712763671875,-0.1789932250976562,-0.8945755958557129,0.2899960279464721,16.367258544921874
1766002383495057200,17.49005712890625,-0.1483592987060547,-0.9855363368988036,0.4450979828834533,16.386039306640626
1766002383513837600,17.508837646484373,-0.360447883605957,-1.0052192211151123,0.4421250820159912,16.404819824218748
1766002383532618200,17.5276181640625,-0.4023694992065429,-0.8480141162872314,0.2241278886795044,16.423600341796874
1766002383551399000,17.54639892578125,-0.595829963684082,-0.8525872230529785,-0.126071810722351,16.442381103515626
1766002383570179600,17.5651796875,-0.6426019668579102,-0.7710111141204834,-0.3469537496566772,16.461161865234374
1766002383588960000,17.5839599609375,-0.3177747726440429,-0.7301807403564453,-0.2897776365280151,16.479942138671873
1766002383607740700,17.60274072265625,0.0417737960815429,-0.6303186416625977,-0.1890649795532226,16.498722900390625
1766002383626521300,17.621521240234376,0.2544460296630859,-0.6154007911682129,-0.1197335720062255,16.51750341796875
1766002383645302000,17.640302001953124,0.3541469573974609,-0.4527950286865234,-0.1018196940422058,16.5362841796875
1766002383664082400,17.65908251953125,0.4820375442504883,-0.1852054595947265,-0.1391459107398986,16.555064697265625
1766002383692253400,17.68725341796875,0.4842214584350586,0.0749931335449218,-0.2322366833686828,16.583235595703126
1766002383711034000,17.7060341796875,0.5092372894287109,0.1463027000427246,-0.3222099542617798,16.602016357421874
1766002383729814500,17.724814453125,0.6058969497680664,0.1212782859802246,-0.4993550777435303,16.620796630859374
1766002383748595200,17.74359521484375,0.6311874389648438,0.1338963508605957,-0.5076440572738647,16.639577392578126
1766002383767376000,17.7623759765625,0.9333772659301758,0.0991115570068359,-0.3602396249771118,16.658358154296874
1766002383786156300,17.78115625,1.1120319366455078,0.1204719543457031,-0.2257875204086303,16.677138427734373
1766002383804937000,17.79993701171875,1.0908231735229492,0.2043867111206054,-0.1519957184791565,16.695919189453125
1766002383823717600,17.818717529296876,1.053236961364746,0.3793349266052246,0.0074802637100219,16.71469970703125
1766002383842498000,17.837498046875,1.1222591400146484,0.3555517196655273,0.1522984504699707,16.733480224609377
1766002383861278700,17.85627880859375,1.0841617584228516,0.375699520111084,0.349387913942337,16.752260986328125
1766002383880059400,17.875059326171876,0.9664573669433594,0.4623241424560547,0.4024600982666015,16.77104150390625
1766002383908230100,17.903230224609374,0.6398696899414062,0.6951608657836914,0.5678431391716003,16.79921240234375
1766002383927010800,17.9220107421875,0.8715457916259766,1.0929107666015625,0.5023784041404724,16.817992919921874
1766002383955181800,17.950181884765627,0.9857044219970704,1.2024765014648438,0.7859768867492676,16.8461640625
1766002383973962200,17.968962158203126,1.145918846130371,1.271463394165039,1.0404231548309326,16.8649443359375
1766002383992743000,17.987742919921875,0.9719448089599608,1.1060771942138672,1.1522457599639893,16.88372509765625
1766002384011523600,18.006523681640626,0.7053813934326172,0.7634506225585938,1.1853461265563965,16.902505859375
1766002384030304300,18.02530419921875,0.3724193572998047,0.2788224220275879,1.0877175331115725,16.921286376953123
1766002384049084700,18.044084716796878,-0.0866861343383789,-0.2395129203796386,0.9308120608329772,16.940066894531252
1766002384067865300,18.062865234375,0.0162582397460937,-0.4336886405944824,0.61934894323349,16.958847412109375
1766002384086646000,18.08164599609375,-0.2546625137329101,-0.7456088066101074,0.7748903632164001,16.977628173828126
1766002384105426400,18.100426513671877,-0.0504035949707031,-0.8138947486877441,0.7267241477966309,16.996408691406252
1766002384124207000,18.11920703125,-0.1625270843505859,-0.7640447616577148,0.7288554906845093,17.015189208984374
1766002384142987800,18.13798779296875,-0.3499054908752441,-0.7638802528381348,0.6648513078689575,17.033969970703126
1766002384161768200,18.15676831054688,-0.5016078948974609,-0.7325859069824219,0.498456060886383,17.052750488281255
1766002384180548900,18.175548828125,-0.7291135787963867,-0.7023129463195801,0.1840681135654449,17.071531005859374
1766002384199329500,18.19432958984375,-0.8671903610229492,-0.6317005157470703,-0.1677489876747131,17.090311767578125
1766002384218110200,18.21311010742188,-0.955263614654541,-0.588864803314209,-0.370216429233551,17.109092285156255
1766002384236890600,18.231890625,-1.1885008811950684,-0.5175981521606445,-0.3878186047077179,17.127872802734373
1766002384255671300,18.25067138671875,-1.0437288284301758,-0.0498609542846679,-0.0968655943870544,17.146653564453125
1766002384274452000,18.26945190429688,-0.9497504234313964,0.4373950958251953,0.1883026957511901,17.165434082031254
1766002384293232400,18.288232421875,-1.3130974769592283,0.5359630584716797,0.3411687016487121,17.184214599609376
1766002384312013000,18.307012939453124,-1.48209810256958,0.4682765007019043,0.4667959213256836,17.2029951171875
1766002384340184000,18.33518408203125,-1.350660800933838,0.4108548164367676,0.6807028651237488,17.231166259765626
1766002384358964700,18.35396484375,-1.259871482849121,0.1718759536743164,0.7084609270095825,17.249947021484374
1766002384377745200,18.3727451171875,-1.0275721549987793,0.0034332275390625,0.7226606607437134,17.268727294921874
1766002384396525800,18.39152587890625,-0.760556697845459,0.1808419227600097,0.5473403930664062,17.287508056640625
1766002384415306500,18.410306396484376,-0.6286864280700684,-0.1767764091491699,0.2957998514175415,17.30628857421875
1766002384443477200,18.438477294921874,-0.6815943717956543,0.0759100914001464,0.1204488277435302,17.33445947265625
1766002384462258000,18.4572578125,-0.6577706336975098,-0.2219424247741699,0.0910165309906005,17.353239990234375
1766002384481038600,18.47603857421875,-0.4013700485229492,-0.0216679573059082,-0.0232570171356201,17.372020751953126
1766002384499819000,18.494819091796877,0.0424675941467285,0.2005572319030761,-0.081230878829956,17.390801269531252
